Time,header.seq,header.stamp.secs,header.stamp.nsecs,header.frame_id,orientation.x,orientation.y,orientation.z,orientation.w,orientation_covariance_0,orientation_covariance_1,orientation_covariance_2,orientation_covariance_3,orientation_covariance_4,orientation_covariance_5,orientation_covariance_6,orientation_covariance_7,orientation_covariance_8,angular_velocity.x,angular_velocity.y,angular_velocity.z,angular_velocity_covariance_0,angular_velocity_covariance_1,angular_velocity_covariance_2,angular_velocity_covariance_3,angular_velocity_covariance_4,angular_velocity_covariance_5,angular_velocity_covariance_6,angular_velocity_covariance_7,angular_velocity_covariance_8,linear_acceleration.x,linear_acceleration.y,linear_acceleration.z,linear_acceleration_covariance_0,linear_acceleration_covariance_1,linear_acceleration_covariance_2,linear_acceleration_covariance_3,linear_acceleration_covariance_4,linear_acceleration_covariance_5,linear_acceleration_covariance_6,linear_acceleration_covariance_7,linear_acceleration_covariance_8
1646350743.8176749,6312,1646350743,816156351,,0.0,0.0,0.0,0.0,0.0,0.0,0.0,0.0,0.0,0.0,0.0,0.0,0.0,0.23633812367916107,-0.0147966668009758,-0.006982361897826195,0.0,0.0,0.0,0.0,0.0,0.0,0.0,0.0,0.0,0.044871795922517776,0.988974392414093,10.361794471740723,0.0,0.0,0.0,0.0,0.0,0.0,0.0,0.0,0.0
1646350743.8188348,6313,1646350743,818445080,,0.0,0.0,0.0,0.0,0.0,0.0,0.0,0.0,0.0,0.0,0.0,0.0,0.0,0.2523171007633209,-0.008405081927776337,0.0047355457209050655,0.0,0.0,0.0,0.0,0.0,0.0,0.0,0.0,0.0,-0.2764102518558502,0.47564104199409485,10.24871826171875,0.0,0.0,0.0,0.0,0.0,0.0,0.0,0.0,0.0
1646350743.8209803,6314,1646350743,820645073,,0.0,0.0,0.0,0.0,0.0,0.0,0.0,0.0,0.0,0.0,0.0,0.0,0.0,0.2544476091861725,-0.011600873433053493,0.0036702812649309635,0.0,0.0,0.0,0.0,0.0,0.0,0.0,0.0,0.0,-0.31051284074783325,0.15974359214305878,10.11230754852295,0.0,0.0,0.0,0.0,0.0,0.0,0.0,0.0,0.0
1646350743.8231833,6315,1646350743,822833730,,0.0,0.0,0.0,0.0,0.0,0.0,0.0,0.0,0.0,0.0,0.0,0.0,0.0,0.24272970855236053,-0.009470346383750439,-0.0037865692283958197,0.0,0.0,0.0,0.0,0.0,0.0,0.0,0.0,0.0,0.2925640940666199,0.7053846716880798,10.471282005310059,0.0,0.0,0.0,0.0,0.0,0.0,0.0,0.0,0.0
1646350743.8256962,6316,1646350743,825179483,,0.0,0.0,0.0,0.0,0.0,0.0,0.0,0.0,0.0,0.0,0.0,0.0,0.0,0.2619044780731201,-0.02225351706147194,-0.0037865692283958197,0.0,0.0,0.0,0.0,0.0,0.0,0.0,0.0,0.0,-0.048461541533470154,0.4235897660255432,9.620512962341309,0.0,0.0,0.0,0.0,0.0,0.0,0.0,0.0,0.0
1646350743.827947,6317,1646350743,827504675,,0.0,0.0,0.0,0.0,0.0,0.0,0.0,0.0,0.0,0.0,0.0,0.0,0.0,0.24592550098896027,0.00011703448399202898,0.02710609696805477,0.0,0.0,0.0,0.0,0.0,0.0,0.0,0.0,0.0,0.2117948830127716,0.8400000333786011,9.941795349121094,0.0,0.0,0.0,0.0,0.0,0.0,0.0,0.0,0.0
1646350743.8301587,6318,1646350743,829784611,,0.0,0.0,0.0,0.0,0.0,0.0,0.0,0.0,0.0,0.0,0.0,0.0,0.0,0.2523171007633209,-0.004144023172557354,-0.0005907765007577837,0.0,0.0,0.0,0.0,0.0,0.0,0.0,0.0,0.0,0.0735897421836853,0.43974360823631287,9.74794864654541,0.0,0.0,0.0,0.0,0.0,0.0,0.0,0.0,0.0
1646350743.8323877,6319,1646350743,832004319,,0.0,0.0,0.0,0.0,0.0,0.0,0.0,0.0,0.0,0.0,0.0,0.0,0.0,0.22462020814418793,0.006508619990199804,0.02071451209485531,0.0,0.0,0.0,0.0,0.0,0.0,0.0,0.0,0.0,0.048461541533470154,0.7628205418586731,10.157179832458496,0.0,0.0,0.0,0.0,0.0,0.0,0.0,0.0,0.0
1646350743.834623,6320,1646350743,834218107,,0.0,0.0,0.0,0.0,0.0,0.0,0.0,0.0,0.0,0.0,0.0,0.0,0.0,0.2395339161157608,-0.026514576748013496,0.007931338623166084,0.0,0.0,0.0,0.0,0.0,0.0,0.0,0.0,0.0,0.18307693302631378,0.36974361538887024,9.728204727172852,0.0,0.0,0.0,0.0,0.0,0.0,0.0,0.0,0.0
1646350743.8368132,6321,1646350743,836468681,,0.0,0.0,0.0,0.0,0.0,0.0,0.0,0.0,0.0,0.0,0.0,0.0,0.0,0.22462020814418793,0.010769677348434925,0.0058008101768791676,0.0,0.0,0.0,0.0,0.0,0.0,0.0,0.0,0.0,0.14538460969924927,0.865128219127655,9.990256309509277,0.0,0.0,0.0,0.0,0.0,0.0,0.0,0.0,0.0
1646350743.8391194,6322,1646350743,838689553,,0.0,0.0,0.0,0.0,0.0,0.0,0.0,0.0,0.0,0.0,0.0,0.0,0.0,0.21929389238357544,-0.006274553015828133,0.0026050168089568615,0.0,0.0,0.0,0.0,0.0,0.0,0.0,0.0,0.0,0.2620512843132019,0.8561538457870483,9.9005126953125,0.0,0.0,0.0,0.0,0.0,0.0,0.0,0.0,0.0
1646350743.8416421,6323,1646350743,840973955,,0.0,0.0,0.0,0.0,0.0,0.0,0.0,0.0,0.0,0.0,0.0,0.0,0.0,0.1884012222290039,-0.011600873433053493,0.017518719658255577,0.0,0.0,0.0,0.0,0.0,0.0,0.0,0.0,0.0,0.023333333432674408,0.34282052516937256,9.731794357299805,0.0,0.0,0.0,0.0,0.0,0.0,0.0,0.0,0.0
1646350743.843704,6324,1646350743,843219546,,0.0,0.0,0.0,0.0,0.0,0.0,0.0,0.0,0.0,0.0,0.0,0.0,0.0,0.17135700583457947,-0.019057724624872208,-0.012308684177696705,0.0,0.0,0.0,0.0,0.0,0.0,0.0,0.0,0.0,0.1741025745868683,0.8310256600379944,10.203845977783203,0.0,0.0,0.0,0.0,0.0,0.0,0.0,0.0,0.0
1646350743.8458936,6325,1646350743,845417352,,0.0,0.0,0.0,0.0,0.0,0.0,0.0,0.0,0.0,0.0,0.0,0.0,0.0,0.1287464052438736,-0.0147966668009758,0.014322925359010696,0.0,0.0,0.0,0.0,0.0,0.0,0.0,0.0,0.0,0.14000000059604645,0.4235897660255432,9.706666946411133,0.0,0.0,0.0,0.0,0.0,0.0,0.0,0.0,0.0
1646350743.8480716,6326,1646350743,847630643,,0.0,0.0,0.0,0.0,0.0,0.0,0.0,0.0,0.0,0.0,0.0,0.0,0.0,0.12661588191986084,-0.04355880245566368,0.0036702812649309635,0.0,0.0,0.0,0.0,0.0,0.0,0.0,0.0,0.0,0.4182051420211792,1.0087180137634277,9.9094877243042,0.0,0.0,0.0,0.0,0.0,0.0,0.0,0.0,0.0
1646350743.850247,6327,1646350743,849831217,,0.0,0.0,0.0,0.0,0.0,0.0,0.0,0.0,0.0,0.0,0.0,0.0,0.0,0.10211480408906937,0.00224756239913404,0.013257660903036594,0.0,0.0,0.0,0.0,0.0,0.0,0.0,0.0,0.0,0.30512821674346924,0.6892307996749878,9.927435874938965,0.0,0.0,0.0,0.0,0.0,0.0,0.0,0.0,0.0
1646350743.852294,6328,1646350743,852084620,,0.0,0.0,0.0,0.0,0.0,0.0,0.0,0.0,0.0,0.0,0.0,0.0,0.0,0.0818747952580452,-0.02544931322336197,0.01964924857020378,0.0,0.0,0.0,0.0,0.0,0.0,0.0,0.0,0.0,0.39666667580604553,0.5420513153076172,9.776666641235352,0.0,0.0,0.0,0.0,0.0,0.0,0.0,0.0,0.0
1646350743.8549988,6329,1646350743,854420586,,0.0,0.0,0.0,0.0,0.0,0.0,0.0,0.0,0.0,0.0,0.0,0.0,0.0,0.058438967913389206,-0.02544931322336197,-0.012308684177696705,0.0,0.0,0.0,0.0,0.0,0.0,0.0,0.0,0.0,-0.09692308306694031,0.8112820982933044,9.785640716552734,0.0,0.0,0.0,0.0,0.0,0.0,0.0,0.0,0.0
1646350743.8571703,6330,1646350743,856692813,,0.0,0.0,0.0,0.0,0.0,0.0,0.0,0.0,0.0,0.0,0.0,0.0,0.0,0.040329474955797195,-0.01799245923757553,0.00686607463285327,0.0,0.0,0.0,0.0,0.0,0.0,0.0,0.0,0.0,0.3141025900840759,0.5779487490653992,9.523589134216309,0.0,0.0,0.0,0.0,0.0,0.0,0.0,0.0,0.0
1646350743.8595917,6331,1646350743,859020748,,0.0,0.0,0.0,0.0,0.0,0.0,0.0,0.0,0.0,0.0,0.0,0.0,0.0,0.02435050904750824,-0.009470346383750439,0.00686607463285327,0.0,0.0,0.0,0.0,0.0,0.0,0.0,0.0,0.0,0.07897436618804932,0.8310256600379944,9.767691612243652,0.0,0.0,0.0,0.0,0.0,0.0,0.0,0.0,0.0
1646350743.8616295,6332,1646350743,861259628,,0.0,0.0,0.0,0.0,0.0,0.0,0.0,0.0,0.0,0.0,0.0,0.0,0.0,0.025415774434804916,-0.0147966668009758,-0.011243419721722603,0.0,0.0,0.0,0.0,0.0,0.0,0.0,0.0,0.0,0.28717949986457825,0.2997435927391052,9.362051010131836,0.0,0.0,0.0,0.0,0.0,0.0,0.0,0.0,0.0
1646350743.8637857,6333,1646350743,863466279,,0.0,0.0,0.0,0.0,0.0,0.0,0.0,0.0,0.0,0.0,0.0,0.0,0.0,0.005175749771296978,-0.0147966668009758,0.0015397525858134031,0.0,0.0,0.0,0.0,0.0,0.0,0.0,0.0,0.0,0.21717949211597443,0.9100000262260437,9.89871883392334,0.0,0.0,0.0,0.0,0.0,0.0,0.0,0.0,0.0
1646350743.8661609,6334,1646350743,865693839,,0.0,0.0,0.0,0.0,0.0,0.0,0.0,0.0,0.0,0.0,0.0,0.0,0.0,-0.016129538416862488,-0.01799245923757553,-0.008047626353800297,0.0,0.0,0.0,0.0,0.0,0.0,0.0,0.0,0.0,0.18307693302631378,0.7753846645355225,9.64564037322998,0.0,0.0,0.0,0.0,0.0,0.0,0.0,0.0,0.0
1646350743.868409,6335,1646350743,867940311,,0.0,0.0,0.0,0.0,0.0,0.0,0.0,0.0,0.0,0.0,0.0,0.0,0.0,-0.01186848059296608,-0.020122988149523735,0.0058008101768791676,0.0,0.0,0.0,0.0,0.0,0.0,0.0,0.0,0.0,0.08974359184503555,0.5474358797073364,9.344101905822754,0.0,0.0,0.0,0.0,0.0,0.0,0.0,0.0,0.0
1646350743.8706543,6336,1646350743,870185654,,0.0,0.0,0.0,0.0,0.0,0.0,0.0,0.0,0.0,0.0,0.0,0.0,0.0,-0.021455859765410423,0.013965470716357231,0.0058008101768791676,0.0,0.0,0.0,0.0,0.0,0.0,0.0,0.0,0.0,0.09692308306694031,0.782564103603363,9.807180404663086,0.0,0.0,0.0,0.0,0.0,0.0,0.0,0.0,0.0
1646350743.8728614,6337,1646350743,872416223,,0.0,0.0,0.0,0.0,0.0,0.0,0.0,0.0,0.0,0.0,0.0,0.0,0.0,0.0030452206265181303,-0.004144023172557354,0.010061867535114288,0.0,0.0,0.0,0.0,0.0,0.0,0.0,0.0,0.0,-0.08794872462749481,0.4720512926578522,9.286666870117188,0.0,0.0,0.0,0.0,0.0,0.0,0.0,0.0,0.0
1646350743.8750482,6338,1646350743,874655760,,0.0,0.0,0.0,0.0,0.0,0.0,0.0,0.0,0.0,0.0,0.0,0.0,0.0,-0.020390594378113747,0.013965470716357231,-0.006982361897826195,0.0,0.0,0.0,0.0,0.0,0.0,0.0,0.0,0.0,0.19205129146575928,0.8812820911407471,9.963333129882812,0.0,0.0,0.0,0.0,0.0,0.0,0.0,0.0,0.0
1646350743.8773317,6339,1646350743,876939855,,0.0,0.0,0.0,0.0,0.0,0.0,0.0,0.0,0.0,0.0,0.0,0.0,0.0,-0.010803216136991978,0.001182297826744616,0.0164534542709589,0.0,0.0,0.0,0.0,0.0,0.0,0.0,0.0,0.0,0.22615385055541992,0.2674359083175659,9.45897388458252,0.0,0.0,0.0,0.0,0.0,0.0,0.0,0.0,0.0
1646350743.8795714,6340,1646350743,879188368,,0.0,0.0,0.0,0.0,0.0,0.0,0.0,0.0,0.0,0.0,0.0,0.0,0.0,-0.032108504325151443,-0.007339817471802235,-0.024026591330766678,0.0,0.0,0.0,0.0,0.0,0.0,0.0,0.0,0.0,0.29615384340286255,0.7717949151992798,9.65999984741211,0.0,0.0,0.0,0.0,0.0,0.0,0.0,0.0,0.0
1646350743.881814,6341,1646350743,881400885,,0.0,0.0,0.0,0.0,0.0,0.0,0.0,0.0,0.0,0.0,0.0,0.0,0.0,-0.0012158364988863468,0.001182297826744616,0.000474488188046962,0.0,0.0,0.0,0.0,0.0,0.0,0.0,0.0,0.0,0.26923078298568726,0.5187179446220398,9.577435493469238,0.0,0.0,0.0,0.0,0.0,0.0,0.0,0.0,0.0
1646350743.8839843,6342,1646350743,883602685,,0.0,0.0,0.0,0.0,0.0,0.0,0.0,0.0,0.0,0.0,0.0,0.0,0.0,-0.002281100954860449,-0.008405081927776337,-0.017635004594922066,0.0,0.0,0.0,0.0,0.0,0.0,0.0,0.0,0.0,0.3805128335952759,0.8848718404769897,9.69410228729248,0.0,0.0,0.0,0.0,0.0,0.0,0.0,0.0,0.0
1646350743.8869057,6343,1646350743,885905650,,0.0,0.0,0.0,0.0,0.0,0.0,0.0,0.0,0.0,0.0,0.0,0.0,0.0,-0.017194801941514015,0.00544335599988699,-0.03254871070384979,0.0,0.0,0.0,0.0,0.0,0.0,0.0,0.0,0.0,0.14538460969924927,0.6623077392578125,10.071025848388672,0.0,0.0,0.0,0.0,0.0,0.0,0.0,0.0,0.0
1646350743.8885462,6344,1646350743,888139811,,0.0,0.0,0.0,0.0,0.0,0.0,0.0,0.0,0.0,0.0,0.0,0.0,0.0,0.001979956403374672,0.012900206260383129,0.03775873780250549,0.0,0.0,0.0,0.0,0.0,0.0,0.0,0.0,0.0,-0.023333333432674408,0.3571794927120209,9.433846473693848,0.0,0.0,0.0,0.0,0.0,0.0,0.0,0.0,0.0
1646350743.8919022,6345,1646350743,890360257,,0.0,0.0,0.0,0.0,0.0,0.0,0.0,0.0,0.0,0.0,0.0,0.0,0.0,0.0009146920638158917,0.007573884446173906,-0.006982361897826195,0.0,0.0,0.0,0.0,0.0,0.0,0.0,0.0,0.0,0.20820513367652893,0.7161538600921631,9.913077354431152,0.0,0.0,0.0,0.0,0.0,0.0,0.0,0.0,0.0
1646350743.8928819,6346,1646350743,892576519,,0.0,0.0,0.0,0.0,0.0,0.0,0.0,0.0,0.0,0.0,0.0,0.0,0.0,-0.0012158364988863468,-0.004144023172557354,0.021779777482151985,0.0,0.0,0.0,0.0,0.0,0.0,0.0,0.0,0.0,-0.08435897529125214,0.3715384900569916,9.484102249145508,0.0,0.0,0.0,0.0,0.0,0.0,0.0,0.0,0.0
1646350743.895209,6347,1646350743,894783222,,0.0,0.0,0.0,0.0,0.0,0.0,0.0,0.0,0.0,0.0,0.0,0.0,0.0,-0.023586388677358627,0.02887917309999466,-0.0027213047724217176,0.0,0.0,0.0,0.0,0.0,0.0,0.0,0.0,0.0,0.12205128371715546,0.7305128574371338,9.877179145812988,0.0,0.0,0.0,0.0,0.0,0.0,0.0,0.0,0.0
1646350743.897571,6348,1646350743,897097530,,0.0,0.0,0.0,0.0,0.0,0.0,0.0,0.0,0.0,0.0,0.0,0.0,0.0,0.01689365692436695,0.00011703448399202898,0.01112713199108839,0.0,0.0,0.0,0.0,0.0,0.0,0.0,0.0,0.0,0.2943589687347412,0.3500000238418579,9.661794662475586,0.0,0.0,0.0,0.0,0.0,0.0,0.0,0.0,0.0
1646350743.8997154,6349,1646350743,899336098,,0.0,0.0,0.0,0.0,0.0,0.0,0.0,0.0,0.0,0.0,0.0,0.0,0.0,-0.01186848059296608,0.013965470716357231,0.02710609696805477,0.0,0.0,0.0,0.0,0.0,0.0,0.0,0.0,0.0,0.2746153771877289,0.7771795392036438,9.803589820861816,0.0,0.0,0.0,0.0,0.0,0.0,0.0,0.0,0.0
1646350743.9018562,6350,1646350743,901566838,,0.0,0.0,0.0,0.0,0.0,0.0,0.0,0.0,0.0,0.0,0.0,0.0,0.0,-0.018260065466165543,0.016095999628305435,0.01112713199108839,0.0,0.0,0.0,0.0,0.0,0.0,0.0,0.0,0.0,0.03589743748307228,0.6335898041725159,9.8610258102417,0.0,0.0,0.0,0.0,0.0,0.0,0.0,0.0,0.0
1646350743.9040797,6351,1646350743,903786027,,0.0,0.0,0.0,0.0,0.0,0.0,0.0,0.0,0.0,0.0,0.0,0.0,0.0,-0.013999010436236858,0.025683380663394928,0.01112713199108839,0.0,0.0,0.0,0.0,0.0,0.0,0.0,0.0,0.0,0.2387179583311081,0.5061538815498352,9.692307472229004,0.0,0.0,0.0,0.0,0.0,0.0,0.0,0.0,0.0
1646350743.90625,6352,1646350743,905939913,,0.0,0.0,0.0,0.0,0.0,0.0,0.0,0.0,0.0,0.0,0.0,0.0,0.0,0.0009146920638158917,-0.020122988149523735,-0.015504478476941586,0.0,0.0,0.0,0.0,0.0,0.0,0.0,0.0,0.0,0.08076923340559006,0.6264103055000305,10.00820541381836,0.0,0.0,0.0,0.0,0.0,0.0,0.0,0.0,0.0
1646350743.9084573,6353,1646350743,908114465,,0.0,0.0,0.0,0.0,0.0,0.0,0.0,0.0,0.0,0.0,0.0,0.0,0.0,-0.009737951681017876,-0.003078758716583252,0.017518719658255577,0.0,0.0,0.0,0.0,0.0,0.0,0.0,0.0,0.0,0.2566666603088379,0.28717949986457825,9.762307167053223,0.0,0.0,0.0,0.0,0.0,0.0,0.0,0.0,0.0
1646350743.9105687,6354,1646350743,910270116,,0.0,0.0,0.0,0.0,0.0,0.0,0.0,0.0,0.0,0.0,0.0,0.0,0.0,0.005175749771296978,-0.004144023172557354,0.00686607463285327,0.0,0.0,0.0,0.0,0.0,0.0,0.0,0.0,0.0,0.07000000029802322,0.7789744138717651,10.255897521972656,0.0,0.0,0.0,0.0,0.0,0.0,0.0,0.0,0.0
1646350743.9126596,6355,1646350743,912477486,,0.0,0.0,0.0,0.0,0.0,0.0,0.0,0.0,0.0,0.0,0.0,0.0,0.0,-0.007607422769069672,0.013965470716357231,0.013257660903036594,0.0,0.0,0.0,0.0,0.0,0.0,0.0,0.0,0.0,0.07000000029802322,0.26025640964508057,9.70846176147461,0.0,0.0,0.0,0.0,0.0,0.0,0.0,0.0,0.0
1646350743.9150012,6356,1646350743,914684124,,0.0,0.0,0.0,0.0,0.0,0.0,0.0,0.0,0.0,0.0,0.0,0.0,0.0,-0.02571691758930683,-0.009470346383750439,0.024975569918751717,0.0,0.0,0.0,0.0,0.0,0.0,0.0,0.0,0.0,0.08615384995937347,0.6425641179084778,10.245128631591797,0.0,0.0,0.0,0.0,0.0,0.0,0.0,0.0,0.0
1646350743.9170017,6357,1646350743,916875676,,0.0,0.0,0.0,0.0,0.0,0.0,0.0,0.0,0.0,0.0,0.0,0.0,0.0,-0.0012158364988863468,0.011834941804409027,0.007931338623166084,0.0,0.0,0.0,0.0,0.0,0.0,0.0,0.0,0.0,0.10051282495260239,0.2441025674343109,9.64025592803955,0.0,0.0,0.0,0.0,0.0,0.0,0.0,0.0,0.0
1646350743.9192758,6358,1646350743,919049116,,0.0,0.0,0.0,0.0,0.0,0.0,0.0,0.0,0.0,0.0,0.0,0.0,0.0,-0.012933745980262756,-0.02118825353682041,0.0026050168089568615,0.0,0.0,0.0,0.0,0.0,0.0,0.0,0.0,0.0,0.17769230902194977,0.43974360823631287,9.830512046813965,0.0,0.0,0.0,0.0,0.0,0.0,0.0,0.0,0.0
1646350743.921464,6359,1646350743,921205494,,0.0,0.0,0.0,0.0,0.0,0.0,0.0,0.0,0.0,0.0,0.0,0.0,0.0,0.006241013761609793,0.03207496553659439,-0.009112890809774399,0.0,0.0,0.0,0.0,0.0,0.0,0.0,0.0,0.0,0.01794871874153614,0.4917948842048645,9.981282234191895,0.0,0.0,0.0,0.0,0.0,0.0,0.0,0.0,0.0
1646350743.9236586,6360,1646350743,923369759,,0.0,0.0,0.0,0.0,0.0,0.0,0.0,0.0,0.0,0.0,0.0,0.0,0.0,-0.008672687225043774,0.001182297826744616,0.03456294909119606,0.0,0.0,0.0,0.0,0.0,0.0,0.0,0.0,0.0,0.10948718339204788,0.5582051277160645,9.832307815551758,0.0,0.0,0.0,0.0,0.0,0.0,0.0,0.0,0.0
1646350743.925836,6361,1646350743,925572170,,0.0,0.0,0.0,0.0,0.0,0.0,0.0,0.0,0.0,0.0,0.0,0.0,0.0,-0.009737951681017876,-0.0020134944934397936,-0.0016560404328629375,0.0,0.0,0.0,0.0,0.0,0.0,0.0,0.0,0.0,0.025128206238150597,0.5420513153076172,10.11230754852295,0.0,0.0,0.0,0.0,0.0,0.0,0.0,0.0,0.0
1646350743.9279206,6362,1646350743,927727840,,0.0,0.0,0.0,0.0,0.0,0.0,0.0,0.0,0.0,0.0,0.0,0.0,0.0,-0.01186848059296608,0.003312827320769429,0.012192396447062492,0.0,0.0,0.0,0.0,0.0,0.0,0.0,0.0,0.0,-0.06102564185857773,0.21358974277973175,9.622307777404785,0.0,0.0,0.0,0.0,0.0,0.0,0.0,0.0,0.0
1646350743.9303186,6363,1646350743,929941578,,0.0,0.0,0.0,0.0,0.0,0.0,0.0,0.0,0.0,0.0,0.0,0.0,0.0,0.01689365692436695,0.017161265015602112,-0.014439214020967484,0.0,0.0,0.0,0.0,0.0,0.0,0.0,0.0,0.0,0.03410256281495094,0.5976923108100891,10.020769119262695,0.0,0.0,0.0,0.0,0.0,0.0,0.0,0.0,0.0
1646350743.9328866,6364,1646350743,932113414,,0.0,0.0,0.0,0.0,0.0,0.0,0.0,0.0,0.0,0.0,0.0,0.0,0.0,-0.003346365410834551,0.012900206260383129,0.007931338623166084,0.0,0.0,0.0,0.0,0.0,0.0,0.0,0.0,0.0,0.40205129981040955,0.35538461804389954,9.676154136657715,0.0,0.0,0.0,0.0,0.0,0.0,0.0,0.0,0.0
1646350743.9344878,6365,1646350743,934271810,,0.0,0.0,0.0,0.0,0.0,0.0,0.0,0.0,0.0,0.0,0.0,0.0,0.0,0.01689365692436695,0.010769677348434925,-0.0101781552657485,0.0,0.0,0.0,0.0,0.0,0.0,0.0,0.0,0.0,0.28358975052833557,0.7089743614196777,9.864616394042969,0.0,0.0,0.0,0.0,0.0,0.0,0.0,0.0,0.0
1646350743.9367182,6366,1646350743,936433048,,0.0,0.0,0.0,0.0,0.0,0.0,0.0,0.0,0.0,0.0,0.0,0.0,0.0,-0.023586388677358627,-0.005209287628531456,0.0036702812649309635,0.0,0.0,0.0,0.0,0.0,0.0,0.0,0.0,0.0,0.2064102590084076,0.2764102518558502,9.667179107666016,0.0,0.0,0.0,0.0,0.0,0.0,0.0,0.0,0.0
1646350743.9388669,6367,1646350743,938645898,,0.0,0.0,0.0,0.0,0.0,0.0,0.0,0.0,0.0,0.0,0.0,0.0,0.0,0.013697865419089794,0.003312827320769429,0.021779777482151985,0.0,0.0,0.0,0.0,0.0,0.0,0.0,0.0,0.0,0.2153846174478531,0.7735897898674011,10.024358749389648,0.0,0.0,0.0,0.0,0.0,0.0,0.0,0.0,0.0
1646350743.9411902,6368,1646350743,940857716,,0.0,0.0,0.0,0.0,0.0,0.0,0.0,0.0,0.0,0.0,0.0,0.0,0.0,-0.002281100954860449,0.017161265015602112,0.008996603079140186,0.0,0.0,0.0,0.0,0.0,0.0,0.0,0.0,0.0,0.26923078298568726,0.31589746475219727,9.647436141967773,0.0,0.0,0.0,0.0,0.0,0.0,0.0,0.0,0.0
1646350743.9433875,6369,1646350743,943035381,,0.0,0.0,0.0,0.0,0.0,0.0,0.0,0.0,0.0,0.0,0.0,0.0,0.0,0.017958922311663628,0.001182297826744616,-0.0005907765007577837,0.0,0.0,0.0,0.0,0.0,0.0,0.0,0.0,0.0,0.24948717653751373,0.5779487490653992,9.771282196044922,0.0,0.0,0.0,0.0,0.0,0.0,0.0,0.0,0.0
1646350743.9455268,6370,1646350743,945206024,,0.0,0.0,0.0,0.0,0.0,0.0,0.0,0.0,0.0,0.0,0.0,0.0,0.0,-0.002281100954860449,0.00224756239913404,0.015388189814984798,0.0,0.0,0.0,0.0,0.0,0.0,0.0,0.0,0.0,-0.026923077180981636,0.5779487490653992,10.00820541381836,0.0,0.0,0.0,0.0,0.0,0.0,0.0,0.0,0.0
1646350743.947706,6371,1646350743,947427394,,0.0,0.0,0.0,0.0,0.0,0.0,0.0,0.0,0.0,0.0,0.0,0.0,0.0,0.001979956403374672,-0.007339817471802235,0.0026050168089568615,0.0,0.0,0.0,0.0,0.0,0.0,0.0,0.0,0.0,-0.023333333432674408,0.22615385055541992,9.505640983581543,0.0,0.0,0.0,0.0,0.0,0.0,0.0,0.0,0.0
1646350743.949939,6372,1646350743,949694074,,0.0,0.0,0.0,0.0,0.0,0.0,0.0,0.0,0.0,0.0,0.0,0.0,0.0,-0.00441163033246994,-0.03716721758246422,-0.01976553350687027,0.0,0.0,0.0,0.0,0.0,0.0,0.0,0.0,0.0,-0.028717949986457825,0.6784615516662598,10.00820541381836,0.0,0.0,0.0,0.0,0.0,0.0,0.0,0.0,0.0
1646350743.9522228,6373,1646350743,951951277,,0.0,0.0,0.0,0.0,0.0,0.0,0.0,0.0,0.0,0.0,0.0,0.0,0.0,-0.00015057262498885393,0.015030735172331333,0.0164534542709589,0.0,0.0,0.0,0.0,0.0,0.0,0.0,0.0,0.0,-0.2153846174478531,0.35538461804389954,9.505640983581543,0.0,0.0,0.0,0.0,0.0,0.0,0.0,0.0,0.0
1646350743.954517,6374,1646350743,954172095,,0.0,0.0,0.0,0.0,0.0,0.0,0.0,0.0,0.0,0.0,0.0,0.0,0.0,-0.002281100954860449,-0.005209287628531456,-0.015504478476941586,0.0,0.0,0.0,0.0,0.0,0.0,0.0,0.0,0.0,0.06820512562990189,0.4792307913303375,9.751538276672363,0.0,0.0,0.0,0.0,0.0,0.0,0.0,0.0,0.0
1646350743.9567099,6375,1646350743,956380085,,0.0,0.0,0.0,0.0,0.0,0.0,0.0,0.0,0.0,0.0,0.0,0.0,0.0,-0.01186848059296608,0.017161265015602112,0.014322925359010696,0.0,0.0,0.0,0.0,0.0,0.0,0.0,0.0,0.0,0.028717949986457825,0.5743589997291565,9.563076972961426,0.0,0.0,0.0,0.0,0.0,0.0,0.0,0.0,0.0
1646350743.9588,6376,1646350743,958534910,,0.0,0.0,0.0,0.0,0.0,0.0,0.0,0.0,0.0,0.0,0.0,0.0,0.0,0.015828393399715424,0.00011703448399202898,0.0058008101768791676,0.0,0.0,0.0,0.0,0.0,0.0,0.0,0.0,0.0,0.13641025125980377,0.7107692360877991,9.719230651855469,0.0,0.0,0.0,0.0,0.0,0.0,0.0,0.0,0.0
1646350743.961216,6377,1646350743,960701865,,0.0,0.0,0.0,0.0,0.0,0.0,0.0,0.0,0.0,0.0,0.0,0.0,0.0,0.009436807595193386,0.007573884446173906,-0.028287649154663086,0.0,0.0,0.0,0.0,0.0,0.0,0.0,0.0,0.0,0.23153845965862274,0.5420513153076172,9.55051326751709,0.0,0.0,0.0,0.0,0.0,0.0,0.0,0.0,0.0
1646350743.9633205,6378,1646350743,963018142,,0.0,0.0,0.0,0.0,0.0,0.0,0.0,0.0,0.0,0.0,0.0,0.0,0.0,0.0009146920638158917,-0.003078758716583252,0.013257660903036594,0.0,0.0,0.0,0.0,0.0,0.0,0.0,0.0,0.0,0.06820512562990189,0.7071795463562012,9.586410522460938,0.0,0.0,0.0,0.0,0.0,0.0,0.0,0.0,0.0
1646350743.9654436,6379,1646350743,965237845,,0.0,0.0,0.0,0.0,0.0,0.0,0.0,0.0,0.0,0.0,0.0,0.0,0.0,-0.008672687225043774,0.010769677348434925,-0.03467923775315285,0.0,0.0,0.0,0.0,0.0,0.0,0.0,0.0,0.0,0.0735897421836853,0.7089743614196777,9.934615135192871,0.0,0.0,0.0,0.0,0.0,0.0,0.0,0.0,0.0
1646350743.967622,6380,1646350743,967404192,,0.0,0.0,0.0,0.0,0.0,0.0,0.0,0.0,0.0,0.0,0.0,0.0,0.0,0.0009146920638158917,-0.006274553015828133,-0.014439214020967484,0.0,0.0,0.0,0.0,0.0,0.0,0.0,0.0,0.0,-0.17589744925498962,0.43794873356819153,9.401537895202637,0.0,0.0,0.0,0.0,0.0,0.0,0.0,0.0,0.0
1646350743.969784,6381,1646350743,969557578,,0.0,0.0,0.0,0.0,0.0,0.0,0.0,0.0,0.0,0.0,0.0,0.0,0.0,0.004110485315322876,-0.003078758716583252,-0.009112890809774399,0.0,0.0,0.0,0.0,0.0,0.0,0.0,0.0,0.0,-0.08435897529125214,0.7053846716880798,9.807180404663086,0.0,0.0,0.0,0.0,0.0,0.0,0.0,0.0,0.0
1646350743.9720829,6382,1646350743,971736827,,0.0,0.0,0.0,0.0,0.0,0.0,0.0,0.0,0.0,0.0,0.0,0.0,0.0,-0.00015057262498885393,-0.003078758716583252,-0.020830798894166946,0.0,0.0,0.0,0.0,0.0,0.0,0.0,0.0,0.0,-0.03589743748307228,0.6712821125984192,9.765897750854492,0.0,0.0,0.0,0.0,0.0,0.0,0.0,0.0,0.0
1646350743.9753134,6383,1646350743,973894585,,0.0,0.0,0.0,0.0,0.0,0.0,0.0,0.0,0.0,0.0,0.0,0.0,0.0,0.004110485315322876,0.00544335599988699,-0.025091856718063354,0.0,0.0,0.0,0.0,0.0,0.0,0.0,0.0,0.0,0.28717949986457825,0.6784615516662598,9.566666603088379,0.0,0.0,0.0,0.0,0.0,0.0,0.0,0.0,0.0
1646350743.9762902,6384,1646350743,976116863,,0.0,0.0,0.0,0.0,0.0,0.0,0.0,0.0,0.0,0.0,0.0,0.0,0.0,0.005175749771296978,0.01822652854025364,-0.0037865692283958197,0.0,0.0,0.0,0.0,0.0,0.0,0.0,0.0,0.0,0.15974359214305878,0.6030769348144531,9.712051391601562,0.0,0.0,0.0,0.0,0.0,0.0,0.0,0.0,0.0
1646350743.978599,6385,1646350743,978327027,,0.0,0.0,0.0,0.0,0.0,0.0,0.0,0.0,0.0,0.0,0.0,0.0,0.0,-0.003346365410834551,0.00011703448399202898,0.03136715292930603,0.0,0.0,0.0,0.0,0.0,0.0,0.0,0.0,0.0,-0.03769230842590332,0.4217948913574219,9.446410179138184,0.0,0.0,0.0,0.0,0.0,0.0,0.0,0.0,0.0
1646350743.9809296,6386,1646350743,980543837,,0.0,0.0,0.0,0.0,0.0,0.0,0.0,0.0,0.0,0.0,0.0,0.0,0.0,-0.010803216136991978,0.010769677348434925,-0.011243419721722603,0.0,0.0,0.0,0.0,0.0,0.0,0.0,0.0,0.0,0.02153846248984337,0.7682051658630371,9.999231338500977,0.0,0.0,0.0,0.0,0.0,0.0,0.0,0.0,0.0
1646350743.9831471,6387,1646350743,982760785,,0.0,0.0,0.0,0.0,0.0,0.0,0.0,0.0,0.0,0.0,0.0,0.0,0.0,-0.009737951681017876,-0.009470346383750439,-0.0005907765007577837,0.0,0.0,0.0,0.0,0.0,0.0,0.0,0.0,0.0,0.13102564215660095,0.5366666913032532,9.55230712890625,0.0,0.0,0.0,0.0,0.0,0.0,0.0,0.0,0.0
1646350743.9854386,6388,1646350743,984983527,,0.0,0.0,0.0,0.0,0.0,0.0,0.0,0.0,0.0,0.0,0.0,0.0,0.0,-0.018260065466165543,0.008639149367809296,-0.020830798894166946,0.0,0.0,0.0,0.0,0.0,0.0,0.0,0.0,0.0,0.17230769991874695,0.9548718333244324,9.686923027038574,0.0,0.0,0.0,0.0,0.0,0.0,0.0,0.0,0.0
1646350743.987675,6389,1646350743,987273598,,0.0,0.0,0.0,0.0,0.0,0.0,0.0,0.0,0.0,0.0,0.0,0.0,0.0,-0.00654215831309557,0.00224756239913404,-0.0005907765007577837,0.0,0.0,0.0,0.0,0.0,0.0,0.0,0.0,0.0,0.34641027450561523,0.5617948770523071,9.604358673095703,0.0,0.0,0.0,0.0,0.0,0.0,0.0,0.0,0.0
1646350743.9899697,6390,1646350743,989574743,,0.0,0.0,0.0,0.0,0.0,0.0,0.0,0.0,0.0,0.0,0.0,0.0,0.0,-0.01186848059296608,-0.008405081927776337,-0.0037865692283958197,0.0,0.0,0.0,0.0,0.0,0.0,0.0,0.0,0.0,-0.23512820899486542,0.4684615433216095,9.301025390625,0.0,0.0,0.0,0.0,0.0,0.0,0.0,0.0,0.0
1646350743.9925077,6391,1646350743,991858949,,0.0,0.0,0.0,0.0,0.0,0.0,0.0,0.0,0.0,0.0,0.0,0.0,0.0,-0.03636956214904785,-0.0020134944934397936,-0.0016560404328629375,0.0,0.0,0.0,0.0,0.0,0.0,0.0,0.0,0.0,-0.030512820929288864,0.8579487204551697,10.026153564453125,0.0,0.0,0.0,0.0,0.0,0.0,0.0,0.0,0.0
1646350743.9946194,6392,1646350743,994125840,,0.0,0.0,0.0,0.0,0.0,0.0,0.0,0.0,0.0,0.0,0.0,0.0,0.0,-0.027847446501255035,0.029944438487291336,-0.0005907765007577837,0.0,0.0,0.0,0.0,0.0,0.0,0.0,0.0,0.0,-0.15794873237609863,0.5635897517204285,9.49666690826416,0.0,0.0,0.0,0.0,0.0,0.0,0.0,0.0,0.0
1646350743.9967806,6393,1646350743,996361430,,0.0,0.0,0.0,0.0,0.0,0.0,0.0,0.0,0.0,0.0,0.0,0.0,0.0,-0.02571691758930683,0.003312827320769429,0.012192396447062492,0.0,0.0,0.0,0.0,0.0,0.0,0.0,0.0,0.0,-0.01794871874153614,0.8669230937957764,9.896923065185547,0.0,0.0,0.0,0.0,0.0,0.0,0.0,0.0,0.0
1646350743.9989307,6394,1646350743,998586755,,0.0,0.0,0.0,0.0,0.0,0.0,0.0,0.0,0.0,0.0,0.0,0.0,0.0,-0.021455859765410423,0.020357057452201843,0.008996603079140186,0.0,0.0,0.0,0.0,0.0,0.0,0.0,0.0,0.0,0.13641025125980377,0.5528205037117004,9.676154136657715,0.0,0.0,0.0,0.0,0.0,0.0,0.0,0.0,0.0
1646350744.001212,6395,1646350744,802350,,0.0,0.0,0.0,0.0,0.0,0.0,0.0,0.0,0.0,0.0,0.0,0.0,0.0,-0.042761147022247314,0.009704413823783398,0.000474488188046962,0.0,0.0,0.0,0.0,0.0,0.0,0.0,0.0,0.0,0.1884615421295166,0.9458974599838257,10.0369234085083,0.0,0.0,0.0,0.0,0.0,0.0,0.0,0.0,0.0
1646350744.0034244,6396,1646350744,3082240,,0.0,0.0,0.0,0.0,0.0,0.0,0.0,0.0,0.0,0.0,0.0,0.0,0.0,-0.02678218111395836,-0.012666137889027596,-0.0027213047724217176,0.0,0.0,0.0,0.0,0.0,0.0,0.0,0.0,0.0,0.2530769407749176,0.5582051277160645,9.498461723327637,0.0,0.0,0.0,0.0,0.0,0.0,0.0,0.0,0.0
1646350744.0058086,6397,1646350744,5286952,,0.0,0.0,0.0,0.0,0.0,0.0,0.0,0.0,0.0,0.0,0.0,0.0,0.0,-0.031043240800499916,0.003312827320769429,-0.008047626353800297,0.0,0.0,0.0,0.0,0.0,0.0,0.0,0.0,0.0,0.1561538577079773,0.962051272392273,9.95974349975586,0.0,0.0,0.0,0.0,0.0,0.0,0.0,0.0,0.0
1646350744.008006,6398,1646350744,7539543,,0.0,0.0,0.0,0.0,0.0,0.0,0.0,0.0,0.0,0.0,0.0,0.0,0.0,-0.021455859765410423,-0.007339817471802235,-0.004851834382861853,0.0,0.0,0.0,0.0,0.0,0.0,0.0,0.0,0.0,0.05205128341913223,0.8848718404769897,10.0369234085083,0.0,0.0,0.0,0.0,0.0,0.0,0.0,0.0,0.0
1646350744.010216,6399,1646350744,9804825,,0.0,0.0,0.0,0.0,0.0,0.0,0.0,0.0,0.0,0.0,0.0,0.0,0.0,-0.03743482753634453,-0.010535608977079391,0.00686607463285327,0.0,0.0,0.0,0.0,0.0,0.0,0.0,0.0,0.0,-0.14358974993228912,0.5725641250610352,9.505640983581543,0.0,0.0,0.0,0.0,0.0,0.0,0.0,0.0,0.0
1646350744.0123827,6400,1646350744,12025033,,0.0,0.0,0.0,0.0,0.0,0.0,0.0,0.0,0.0,0.0,0.0,0.0,0.0,-0.03636956214904785,0.007573884446173906,-0.0016560404328629375,0.0,0.0,0.0,0.0,0.0,0.0,0.0,0.0,0.0,0.10769230872392654,0.9333333373069763,10.115897178649902,0.0,0.0,0.0,0.0,0.0,0.0,0.0,0.0,0.0
1646350744.014776,6401,1646350744,14355965,,0.0,0.0,0.0,0.0,0.0,0.0,0.0,0.0,0.0,0.0,0.0,0.0,0.0,-0.032108504325151443,0.003312827320769429,0.0036702812649309635,0.0,0.0,0.0,0.0,0.0,0.0,0.0,0.0,0.0,-0.030512820929288864,0.5869230628013611,9.674358367919922,0.0,0.0,0.0,0.0,0.0,0.0,0.0,0.0,0.0
1646350744.017872,6402,1646350744,16592168,,0.0,0.0,0.0,0.0,0.0,0.0,0.0,0.0,0.0,0.0,0.0,0.0,0.0,-0.04489167407155037,0.012900206260383129,0.0164534542709589,0.0,0.0,0.0,0.0,0.0,0.0,0.0,0.0,0.0,0.16333334147930145,1.0302563905715942,10.022564888000488,0.0,0.0,0.0,0.0,0.0,0.0,0.0,0.0,0.0
1646350744.0192866,6403,1646350744,18958304,,0.0,0.0,0.0,0.0,0.0,0.0,0.0,0.0,0.0,0.0,0.0,0.0,0.0,-0.032108504325151443,0.00011703448399202898,0.0036702812649309635,0.0,0.0,0.0,0.0,0.0,0.0,0.0,0.0,0.0,-0.00897435937076807,0.7430769801139832,10.00820541381836,0.0,0.0,0.0,0.0,0.0,0.0,0.0,0.0,0.0
1646350744.0215557,6404,1646350744,21170994,,0.0,0.0,0.0,0.0,0.0,0.0,0.0,0.0,0.0,0.0,0.0,0.0,0.0,-0.060870639979839325,0.004378091543912888,0.02391030639410019,0.0,0.0,0.0,0.0,0.0,0.0,0.0,0.0,0.0,0.2117948830127716,0.8489744067192078,9.893333435058594,0.0,0.0,0.0,0.0,0.0,0.0,0.0,0.0,0.0
1646350744.0239017,6405,1646350744,23411503,,0.0,0.0,0.0,0.0,0.0,0.0,0.0,0.0,0.0,0.0,0.0,0.0,0.0,-0.04489167407155037,-0.0020134944934397936,0.02391030639410019,0.0,0.0,0.0,0.0,0.0,0.0,0.0,0.0,0.0,-0.044871795922517776,0.8848718404769897,10.04769229888916,0.0,0.0,0.0,0.0,0.0,0.0,0.0,0.0,0.0
1646350744.0261374,6406,1646350744,25698883,,0.0,0.0,0.0,0.0,0.0,0.0,0.0,0.0,0.0,0.0,0.0,0.0,0.0,-0.042761147022247314,-0.003078758716583252,0.017518719658255577,0.0,0.0,0.0,0.0,0.0,0.0,0.0,0.0,0.0,0.05564102530479431,0.5151281952857971,9.94538402557373,0.0,0.0,0.0,0.0,0.0,0.0,0.0,0.0,0.0
1646350744.0282316,6407,1646350744,27925511,,0.0,0.0,0.0,0.0,0.0,0.0,0.0,0.0,0.0,0.0,0.0,0.0,0.0,-0.05128326267004013,0.023552851751446724,0.018583983182907104,0.0,0.0,0.0,0.0,0.0,0.0,0.0,0.0,0.0,0.06641025841236115,0.947692334651947,10.239744186401367,0.0,0.0,0.0,0.0,0.0,0.0,0.0,0.0,0.0
1646350744.030571,6408,1646350744,30200689,,0.0,0.0,0.0,0.0,0.0,0.0,0.0,0.0,0.0,0.0,0.0,0.0,0.0,-0.06513170152902603,-0.012666137889027596,0.015388189814984798,0.0,0.0,0.0,0.0,0.0,0.0,0.0,0.0,0.0,-0.11128205060958862,0.4505128264427185,9.825127601623535,0.0,0.0,0.0,0.0,0.0,0.0,0.0,0.0,0.0
1646350744.0328405,6409,1646350744,32483162,,0.0,0.0,0.0,0.0,0.0,0.0,0.0,0.0,0.0,0.0,0.0,0.0,0.0,-0.08430645614862442,0.016095999628305435,0.0026050168089568615,0.0,0.0,0.0,0.0,0.0,0.0,0.0,0.0,0.0,0.15974359214305878,0.9279487133026123,10.422820091247559,0.0,0.0,0.0,0.0,0.0,0.0,0.0,0.0,0.0
1646350744.0349615,6410,1646350744,34708944,,0.0,0.0,0.0,0.0,0.0,0.0,0.0,0.0,0.0,0.0,0.0,0.0,0.0,-0.11519912630319595,0.01822652854025364,0.03562821075320244,0.0,0.0,0.0,0.0,0.0,0.0,0.0,0.0,0.0,-0.012564103119075298,0.8633333444595337,10.239744186401367,0.0,0.0,0.0,0.0,0.0,0.0,0.0,0.0,0.0
1646350744.0374243,6411,1646350744,36973361,,0.0,0.0,0.0,0.0,0.0,0.0,0.0,0.0,0.0,0.0,0.0,0.0,0.0,-0.15248338878154755,0.02142232283949852,0.02710609696805477,0.0,0.0,0.0,0.0,0.0,0.0,0.0,0.0,0.0,0.15435898303985596,0.7161538600921631,10.011795043945312,0.0,0.0,0.0,0.0,0.0,0.0,0.0,0.0,0.0
1646350744.0395827,6412,1646350744,39206352,,0.0,0.0,0.0,0.0,0.0,0.0,0.0,0.0,0.0,0.0,0.0,0.0,0.0,-0.15248338878154755,-0.0009482299210503697,0.02071451209485531,0.0,0.0,0.0,0.0,0.0,0.0,0.0,0.0,0.0,-0.03948718309402466,0.7394872307777405,10.19487190246582,0.0,0.0,0.0,0.0,0.0,0.0,0.0,0.0,0.0
1646350744.0419703,6413,1646350744,41425970,,0.0,0.0,0.0,0.0,0.0,0.0,0.0,0.0,0.0,0.0,0.0,0.0,0.0,-0.1737886518239975,0.016095999628305435,0.018583983182907104,0.0,0.0,0.0,0.0,0.0,0.0,0.0,0.0,0.0,-0.24230769276618958,0.41641026735305786,9.774871826171875,0.0,0.0,0.0,0.0,0.0,0.0,0.0,0.0,0.0
1646350744.044131,6414,1646350744,43674803,,0.0,0.0,0.0,0.0,0.0,0.0,0.0,0.0,0.0,0.0,0.0,0.0,0.0,-0.2249213457107544,-0.007339817471802235,0.0026050168089568615,0.0,0.0,0.0,0.0,0.0,0.0,0.0,0.0,0.0,0.06102564185857773,0.7951282262802124,10.471282005310059,0.0,0.0,0.0,0.0,0.0,0.0,0.0,0.0,0.0
1646350744.0464387,6415,1646350744,45941622,,0.0,0.0,0.0,0.0,0.0,0.0,0.0,0.0,0.0,0.0,0.0,0.0,0.0,-0.21852976083755493,-0.005209287628531456,0.008996603079140186,0.0,0.0,0.0,0.0,0.0,0.0,0.0,0.0,0.0,0.12564103305339813,0.4182051420211792,9.947179794311523,0.0,0.0,0.0,0.0,0.0,0.0,0.0,0.0,0.0
1646350744.0486064,6416,1646350744,48218439,,0.0,0.0,0.0,0.0,0.0,0.0,0.0,0.0,0.0,0.0,0.0,0.0,0.0,-0.2664666473865509,0.006508619990199804,0.0281713604927063,0.0,0.0,0.0,0.0,0.0,0.0,0.0,0.0,0.0,0.21897436678409576,0.8830769658088684,10.358205795288086,0.0,0.0,0.0,0.0,0.0,0.0,0.0,0.0,0.0
1646350744.0508657,6417,1646350744,50477189,,0.0,0.0,0.0,0.0,0.0,0.0,0.0,0.0,0.0,0.0,0.0,0.0,0.0,-0.27711930871009827,-0.010535608977079391,0.00686607463285327,0.0,0.0,0.0,0.0,0.0,0.0,0.0,0.0,0.0,0.42897436022758484,0.44871795177459717,10.09256362915039,0.0,0.0,0.0,0.0,0.0,0.0,0.0,0.0,0.0
1646350744.0533977,6418,1646350744,52920718,,0.0,0.0,0.0,0.0,0.0,0.0,0.0,0.0,0.0,0.0,0.0,0.0,0.0,-0.31440356373786926,0.006508619990199804,0.03562821075320244,0.0,0.0,0.0,0.0,0.0,0.0,0.0,0.0,0.0,-0.1238461583852768,0.4415384829044342,9.817949295043945,0.0,0.0,0.0,0.0,0.0,0.0,0.0,0.0,0.0
1646350744.0555725,6419,1646350744,55189452,,0.0,0.0,0.0,0.0,0.0,0.0,0.0,0.0,0.0,0.0,0.0,0.0,0.0,-0.30481618642807007,-0.009470346383750439,-0.009112890809774399,0.0,0.0,0.0,0.0,0.0,0.0,0.0,0.0,0.0,0.11307692527770996,0.5869230628013611,10.365384101867676,0.0,0.0,0.0,0.0,0.0,0.0,0.0,0.0,0.0
1646350744.057805,6420,1646350744,57475080,,0.0,0.0,0.0,0.0,0.0,0.0,0.0,0.0,0.0,0.0,0.0,0.0,0.0,-0.34849199652671814,-0.011600873433053493,0.008996603079140186,0.0,0.0,0.0,0.0,0.0,0.0,0.0,0.0,0.0,-0.23153845965862274,0.29615384340286255,9.846667289733887,0.0,0.0,0.0,0.0,0.0,0.0,0.0,0.0,0.0
1646350744.0628173,6421,1646350744,59759039,,0.0,0.0,0.0,0.0,0.0,0.0,0.0,0.0,0.0,0.0,0.0,0.0,0.0,-0.34849199652671814,0.001182297826744616,0.039889272302389145,0.0,0.0,0.0,0.0,0.0,0.0,0.0,0.0,0.0,0.3733333349227905,0.7789744138717651,9.859230041503906,0.0,0.0,0.0,0.0,0.0,0.0,0.0,0.0,0.0
1646350744.0629041,6422,1646350744,62042119,,0.0,0.0,0.0,0.0,0.0,0.0,0.0,0.0,0.0,0.0,0.0,0.0,0.0,-0.37192782759666443,-0.0020134944934397936,0.01112713199108839,0.0,0.0,0.0,0.0,0.0,0.0,0.0,0.0,0.0,0.2889743745326996,0.46666666865348816,9.783845901489258,0.0,0.0,0.0,0.0,0.0,0.0,0.0,0.0,0.0
1646350744.0645862,6423,1646350744,64288759,,0.0,0.0,0.0,0.0,0.0,0.0,0.0,0.0,0.0,0.0,0.0,0.0,0.0,-0.40814682841300964,0.006508619990199804,0.026040835306048393,0.0,0.0,0.0,0.0,0.0,0.0,0.0,0.0,0.0,0.1058974415063858,0.8633333444595337,10.182308197021484,0.0,0.0,0.0,0.0,0.0,0.0,0.0,0.0,0.0
1646350744.066928,6424,1646350744,66567165,,0.0,0.0,0.0,0.0,0.0,0.0,0.0,0.0,0.0,0.0,0.0,0.0,0.0,-0.3921678364276886,0.001182297826744616,0.013257660903036594,0.0,0.0,0.0,0.0,0.0,0.0,0.0,0.0,0.0,0.2620512843132019,0.4541025757789612,9.977692604064941,0.0,0.0,0.0,0.0,0.0,0.0,0.0,0.0,0.0
1646350744.0690293,6425,1646350744,68823114,,0.0,0.0,0.0,0.0,0.0,0.0,0.0,0.0,0.0,0.0,0.0,0.0,0.0,-0.4475615918636322,0.038466550409793854,0.06332508474588394,0.0,0.0,0.0,0.0,0.0,0.0,0.0,0.0,0.0,0.08794872462749481,0.2153846174478531,9.54153823852539,0.0,0.0,0.0,0.0,0.0,0.0,0.0,0.0,0.0
1646350744.0714793,6426,1646350744,71034996,,0.0,0.0,0.0,0.0,0.0,0.0,0.0,0.0,0.0,0.0,0.0,0.0,0.0,-0.4614100456237793,-0.006274553015828133,0.024975569918751717,0.0,0.0,0.0,0.0,0.0,0.0,0.0,0.0,0.0,0.13641025125980377,0.4630769193172455,9.878974914550781,0.0,0.0,0.0,0.0,0.0,0.0,0.0,0.0,0.0
1646350744.0736384,6427,1646350744,73287219,,0.0,0.0,0.0,0.0,0.0,0.0,0.0,0.0,0.0,0.0,0.0,0.0,0.0,-0.4528879225254059,0.011834941804409027,0.039889272302389145,0.0,0.0,0.0,0.0,0.0,0.0,0.0,0.0,0.0,-0.17769230902194977,0.3482051491737366,9.963333129882812,0.0,0.0,0.0,0.0,0.0,0.0,0.0,0.0,0.0
1646350744.0759969,6428,1646350744,75554853,,0.0,0.0,0.0,0.0,0.0,0.0,0.0,0.0,0.0,0.0,0.0,0.0,0.0,-0.5008248090744019,-0.0009482299210503697,0.02710609696805477,0.0,0.0,0.0,0.0,0.0,0.0,0.0,0.0,0.0,0.27282050251960754,0.5689743757247925,10.171539306640625,0.0,0.0,0.0,0.0,0.0,0.0,0.0,0.0,0.0
1646350744.0783327,6429,1646350744,77872439,,0.0,0.0,0.0,0.0,0.0,0.0,0.0,0.0,0.0,0.0,0.0,0.0,0.0,-0.5168038010597229,0.004378091543912888,0.02391030639410019,0.0,0.0,0.0,0.0,0.0,0.0,0.0,0.0,0.0,0.2764102518558502,0.2853846251964569,9.972307205200195,0.0,0.0,0.0,0.0,0.0,0.0,0.0,0.0,0.0
1646350744.0805743,6430,1646350744,80099125,,0.0,0.0,0.0,0.0,0.0,0.0,0.0,0.0,0.0,0.0,0.0,0.0,0.0,-0.5487617254257202,0.003312827320769429,0.05054191127419472,0.0,0.0,0.0,0.0,0.0,0.0,0.0,0.0,0.0,0.2153846174478531,0.6964102983474731,10.263076782226562,0.0,0.0,0.0,0.0,0.0,0.0,0.0,0.0,0.0
1646350744.0826783,6431,1646350744,82336888,,0.0,0.0,0.0,0.0,0.0,0.0,0.0,0.0,0.0,0.0,0.0,0.0,0.0,-0.5423701405525208,0.012900206260383129,0.051607176661491394,0.0,0.0,0.0,0.0,0.0,0.0,0.0,0.0,0.0,0.16692309081554413,0.4558974504470825,10.202051162719727,0.0,0.0,0.0,0.0,0.0,0.0,0.0,0.0,0.0
1646350744.0848615,6432,1646350744,84560739,,0.0,0.0,0.0,0.0,0.0,0.0,0.0,0.0,0.0,0.0,0.0,0.0,0.0,-0.5711323618888855,0.01822652854025364,0.06865140795707703,0.0,0.0,0.0,0.0,0.0,0.0,0.0,0.0,0.0,0.3087179660797119,0.35179489850997925,9.823333740234375,0.0,0.0,0.0,0.0,0.0,0.0,0.0,0.0,0.0
1646350744.0873203,6433,1646350744,86809702,,0.0,0.0,0.0,0.0,0.0,0.0,0.0,0.0,0.0,0.0,0.0,0.0,0.0,-0.5785892009735107,0.017161265015602112,0.05267244204878807,0.0,0.0,0.0,0.0,0.0,0.0,0.0,0.0,0.0,0.08615384995937347,0.15256410837173462,10.23794937133789,0.0,0.0,0.0,0.0,0.0,0.0,0.0,0.0,0.0
1646350744.089485,6434,1646350744,89042768,,0.0,0.0,0.0,0.0,0.0,0.0,0.0,0.0,0.0,0.0,0.0,0.0,0.0,-0.6105471253395081,0.004378091543912888,0.07930406183004379,0.0,0.0,0.0,0.0,0.0,0.0,0.0,0.0,0.0,0.18666666746139526,0.13641025125980377,9.713846206665039,0.0,0.0,0.0,0.0,0.0,0.0,0.0,0.0,0.0
1646350744.091845,6435,1646350744,91377892,,0.0,0.0,0.0,0.0,0.0,0.0,0.0,0.0,0.0,0.0,0.0,0.0,0.0,-0.6275913715362549,0.009704413823783398,0.05267244204878807,0.0,0.0,0.0,0.0,0.0,0.0,0.0,0.0,0.0,0.07000000029802322,0.5976923108100891,10.467693328857422,0.0,0.0,0.0,0.0,0.0,0.0,0.0,0.0,0.0
1646350744.0940433,6436,1646350744,93647226,,0.0,0.0,0.0,0.0,0.0,0.0,0.0,0.0,0.0,0.0,0.0,0.0,0.0,-0.6457008719444275,0.01822652854025364,0.09208723157644272,0.0,0.0,0.0,0.0,0.0,0.0,0.0,0.0,0.0,0.1471794843673706,0.18487180769443512,9.871794700622559,0.0,0.0,0.0,0.0,0.0,0.0,0.0,0.0,0.0
1646350744.0963383,6437,1646350744,95871045,,0.0,0.0,0.0,0.0,0.0,0.0,0.0,0.0,0.0,0.0,0.0,0.0,0.0,-0.6531577110290527,-0.010535608977079391,0.06758614629507065,0.0,0.0,0.0,0.0,0.0,0.0,0.0,0.0,0.0,0.1974359005689621,0.46128207445144653,10.582564353942871,0.0,0.0,0.0,0.0,0.0,0.0,0.0,0.0,0.0
1646350744.098549,6438,1646350744,98098595,,0.0,0.0,0.0,0.0,0.0,0.0,0.0,0.0,0.0,0.0,0.0,0.0,0.0,-0.676593542098999,-0.004144023172557354,0.0931524783372879,0.0,0.0,0.0,0.0,0.0,0.0,0.0,0.0,0.0,0.05743589997291565,0.3087179660797119,10.09794807434082,0.0,0.0,0.0,0.0,0.0,0.0,0.0,0.0,0.0
1646350744.1008394,6439,1646350744,100332191,,0.0,0.0,0.0,0.0,0.0,0.0,0.0,0.0,0.0,0.0,0.0,0.0,0.0,-0.689376711845398,-0.007339817471802235,0.07078193873167038,0.0,0.0,0.0,0.0,0.0,0.0,0.0,0.0,0.0,0.05205128341913223,0.3482051491737366,9.783845901489258,0.0,0.0,0.0,0.0,0.0,0.0,0.0,0.0,0.0
1646350744.1041708,6440,1646350744,102600744,,0.0,0.0,0.0,0.0,0.0,0.0,0.0,0.0,0.0,0.0,0.0,0.0,0.0,-0.714942991733551,-0.011600873433053493,0.10060933232307434,0.0,0.0,0.0,0.0,0.0,0.0,0.0,0.0,0.0,0.03589743748307228,0.27820512652397156,10.09794807434082,0.0,0.0,0.0,0.0,0.0,0.0,0.0,0.0,0.0
1646350744.105163,6441,1646350744,104836211,,0.0,0.0,0.0,0.0,0.0,0.0,0.0,0.0,0.0,0.0,0.0,0.0,0.0,-0.7117471694946289,0.00011703448399202898,0.11765356361865997,0.0,0.0,0.0,0.0,0.0,0.0,0.0,0.0,0.0,-0.21358974277973175,0.2674359083175659,9.776666641235352,0.0,0.0,0.0,0.0,0.0,0.0,0.0,0.0,0.0
1646350744.1076043,6442,1646350744,107077713,,0.0,0.0,0.0,0.0,0.0,0.0,0.0,0.0,0.0,0.0,0.0,0.0,0.0,-0.707486093044281,-0.003078758716583252,0.09528300911188126,0.0,0.0,0.0,0.0,0.0,0.0,0.0,0.0,0.0,0.025128206238150597,0.6605128645896912,10.365384101867676,0.0,0.0,0.0,0.0,0.0,0.0,0.0,0.0,0.0
1646350744.1096063,6443,1646350744,109283676,,0.0,0.0,0.0,0.0,0.0,0.0,0.0,0.0,0.0,0.0,0.0,0.0,0.0,-0.7202693223953247,-0.03716721758246422,0.11978409439325333,0.0,0.0,0.0,0.0,0.0,0.0,0.0,0.0,0.0,0.19384616613388062,-0.10948718339204788,9.692307472229004,0.0,0.0,0.0,0.0,0.0,0.0,0.0,0.0,0.0
1646350744.111801,6444,1646350744,111498637,,0.0,0.0,0.0,0.0,0.0,0.0,0.0,0.0,0.0,0.0,0.0,0.0,0.0,-0.7330524921417236,-0.01799245923757553,0.13150200247764587,0.0,0.0,0.0,0.0,0.0,0.0,0.0,0.0,0.0,0.3410256505012512,0.4415384829044342,9.983077049255371,0.0,0.0,0.0,0.0,0.0,0.0,0.0,0.0,0.0
1646350744.1141007,6445,1646350744,113700930,,0.0,0.0,0.0,0.0,0.0,0.0,0.0,0.0,0.0,0.0,0.0,0.0,0.0,-0.714942991733551,-0.027579842135310173,0.12191461771726608,0.0,0.0,0.0,0.0,0.0,0.0,0.0,0.0,0.0,0.21000000834465027,-0.09333333373069763,9.730000495910645,0.0,0.0,0.0,0.0,0.0,0.0,0.0,0.0,0.0
1646350744.1163628,6446,1646350744,115966880,,0.0,0.0,0.0,0.0,0.0,0.0,0.0,0.0,0.0,0.0,0.0,0.0,0.0,-0.7287914156913757,-0.019057724624872208,0.11339250206947327,0.0,0.0,0.0,0.0,0.0,0.0,0.0,0.0,0.0,0.13641025125980377,0.5312820672988892,9.970513343811035,0.0,0.0,0.0,0.0,0.0,0.0,0.0,0.0,0.0
1646350744.118594,6447,1646350744,118186733,,0.0,0.0,0.0,0.0,0.0,0.0,0.0,0.0,0.0,0.0,0.0,0.0,0.0,-0.7213345766067505,-0.010535608977079391,0.13682831823825836,0.0,0.0,0.0,0.0,0.0,0.0,0.0,0.0,0.0,0.14897435903549194,-0.29076921939849854,9.665384292602539,0.0,0.0,0.0,0.0,0.0,0.0,0.0,0.0,0.0
1646350744.1207743,6448,1646350744,120421656,,0.0,0.0,0.0,0.0,0.0,0.0,0.0,0.0,0.0,0.0,0.0,0.0,0.0,-0.7170735001564026,-0.004144023172557354,0.14321990311145782,0.0,0.0,0.0,0.0,0.0,0.0,0.0,0.0,0.0,-0.4182051420211792,-0.2943589687347412,9.344101905822754,0.0,0.0,0.0,0.0,0.0,0.0,0.0,0.0,0.0
1646350744.1232097,6449,1646350744,122767180,,0.0,0.0,0.0,0.0,0.0,0.0,0.0,0.0,0.0,0.0,0.0,0.0,0.0,-0.6947030425071716,-0.020122988149523735,0.1165883019566536,0.0,0.0,0.0,0.0,0.0,0.0,0.0,0.0,0.0,0.16153846681118011,0.016153845936059952,10.264871597290039,0.0,0.0,0.0,0.0,0.0,0.0,0.0,0.0,0.0
1646350744.1255467,6450,1646350744,125082958,,0.0,0.0,0.0,0.0,0.0,0.0,0.0,0.0,0.0,0.0,0.0,0.0,0.0,-0.7160082459449768,-0.009470346383750439,0.11019670963287354,0.0,0.0,0.0,0.0,0.0,0.0,0.0,0.0,0.0,0.01794871874153614,-0.25487178564071655,9.75333309173584,0.0,0.0,0.0,0.0,0.0,0.0,0.0,0.0,0.0
1646350744.127765,6451,1646350744,127326362,,0.0,0.0,0.0,0.0,0.0,0.0,0.0,0.0,0.0,0.0,0.0,0.0,0.0,-0.6957682371139526,-0.0020134944934397936,0.1304367333650589,0.0,0.0,0.0,0.0,0.0,0.0,0.0,0.0,0.0,0.08435897529125214,-0.023333333432674408,9.584615707397461,0.0,0.0,0.0,0.0,0.0,0.0,0.0,0.0,0.0
1646350744.1298883,6452,1646350744,129529743,,0.0,0.0,0.0,0.0,0.0,0.0,0.0,0.0,0.0,0.0,0.0,0.0,0.0,-0.6723324656486511,-0.008405081927776337,0.1208493560552597,0.0,0.0,0.0,0.0,0.0,0.0,0.0,0.0,0.0,-0.13461539149284363,-0.3912820518016815,9.783845901489258,0.0,0.0,0.0,0.0,0.0,0.0,0.0,0.0,0.0
1646350744.132161,6453,1646350744,131764489,,0.0,0.0,0.0,0.0,0.0,0.0,0.0,0.0,0.0,0.0,0.0,0.0,0.0,-0.6659408807754517,0.00224756239913404,0.11126197874546051,0.0,0.0,0.0,0.0,0.0,0.0,0.0,0.0,0.0,-0.10769230872392654,-0.04307692497968674,9.9094877243042,0.0,0.0,0.0,0.0,0.0,0.0,0.0,0.0,0.0
1646350744.1343622,6454,1646350744,134106847,,0.0,0.0,0.0,0.0,0.0,0.0,0.0,0.0,0.0,0.0,0.0,0.0,0.0,-0.6670061349868774,-0.005209287628531456,0.11445777118206024,0.0,0.0,0.0,0.0,0.0,0.0,0.0,0.0,0.0,-0.13461539149284363,-0.10769230872392654,9.923846244812012,0.0,0.0,0.0,0.0,0.0,0.0,0.0,0.0,0.0
1646350744.1368494,6455,1646350744,136397642,,0.0,0.0,0.0,0.0,0.0,0.0,0.0,0.0,0.0,0.0,0.0,0.0,0.0,-0.6574187874794006,0.011834941804409027,0.12297988682985306,0.0,0.0,0.0,0.0,0.0,0.0,0.0,0.0,0.0,-0.11846154183149338,-0.4451282024383545,9.304615020751953,0.0,0.0,0.0,0.0,0.0,0.0,0.0,0.0,0.0
1646350744.139228,6456,1646350744,138732526,,0.0,0.0,0.0,0.0,0.0,0.0,0.0,0.0,0.0,0.0,0.0,0.0,0.0,-0.6201345324516296,-0.015861930325627327,0.10380512475967407,0.0,0.0,0.0,0.0,0.0,0.0,0.0,0.0,0.0,0.0735897421836853,0.08794872462749481,9.948974609375,0.0,0.0,0.0,0.0,0.0,0.0,0.0,0.0,0.0
1646350744.1413598,6457,1646350744,141004224,,0.0,0.0,0.0,0.0,0.0,0.0,0.0,0.0,0.0,0.0,0.0,0.0,0.0,-0.6414397954940796,-0.03716721758246422,0.11445777118206024,0.0,0.0,0.0,0.0,0.0,0.0,0.0,0.0,0.0,0.046666666865348816,-0.4684615433216095,10.002820014953613,0.0,0.0,0.0,0.0,0.0,0.0,0.0,0.0,0.0
1646350744.1436126,6458,1646350744,143249609,,0.0,0.0,0.0,0.0,0.0,0.0,0.0,0.0,0.0,0.0,0.0,0.0,0.0,-0.6105471253395081,-0.02225351706147194,0.11445777118206024,0.0,0.0,0.0,0.0,0.0,0.0,0.0,0.0,0.0,0.18307693302631378,0.18666666746139526,9.800000190734863,0.0,0.0,0.0,0.0,0.0,0.0,0.0,0.0,0.0
1646350744.1463783,6459,1646350744,145495759,,0.0,0.0,0.0,0.0,0.0,0.0,0.0,0.0,0.0,0.0,0.0,0.0,0.0,-0.5903071165084839,-0.03503669053316116,0.08995670825242996,0.0,0.0,0.0,0.0,0.0,0.0,0.0,0.0,0.0,0.046666666865348816,0.028717949986457825,9.690512657165527,0.0,0.0,0.0,0.0,0.0,0.0,0.0,0.0,0.0
1646350744.1481235,6460,1646350744,147744325,,0.0,0.0,0.0,0.0,0.0,0.0,0.0,0.0,0.0,0.0,0.0,0.0,0.0,-0.5892418622970581,-0.01799245923757553,0.12937147915363312,0.0,0.0,0.0,0.0,0.0,0.0,0.0,0.0,0.0,0.12025640904903412,-0.26025640964508057,9.749743461608887,0.0,0.0,0.0,0.0,0.0,0.0,0.0,0.0,0.0
1646350744.1502867,6461,1646350744,149965676,,0.0,0.0,0.0,0.0,0.0,0.0,0.0,0.0,0.0,0.0,0.0,0.0,0.0,-0.5594144463539124,-0.0424935407936573,0.10060933232307434,0.0,0.0,0.0,0.0,0.0,0.0,0.0,0.0,0.0,0.1058974415063858,-0.11846154183149338,9.776666641235352,0.0,0.0,0.0,0.0,0.0,0.0,0.0,0.0,0.0
1646350744.1525393,6462,1646350744,152209245,,0.0,0.0,0.0,0.0,0.0,0.0,0.0,0.0,0.0,0.0,0.0,0.0,0.0,-0.5530228018760681,-0.03290615975856781,0.1251104176044464,0.0,0.0,0.0,0.0,0.0,0.0,0.0,0.0,0.0,0.11128205060958862,-0.05384615436196327,9.625897407531738,0.0,0.0,0.0,0.0,0.0,0.0,0.0,0.0,0.0
1646350744.1548862,6463,1646350744,154426935,,0.0,0.0,0.0,0.0,0.0,0.0,0.0,0.0,0.0,0.0,0.0,0.0,0.0,-0.5338480472564697,-0.03503669053316116,0.08889143913984299,0.0,0.0,0.0,0.0,0.0,0.0,0.0,0.0,0.0,0.0825641080737114,0.32307693362236023,9.532564163208008,0.0,0.0,0.0,0.0,0.0,0.0,0.0,0.0,0.0
1646350744.1569657,6464,1646350744,156653346,,0.0,0.0,0.0,0.0,0.0,0.0,0.0,0.0,0.0,0.0,0.0,0.0,0.0,-0.5104122161865234,-0.023318784311413765,0.07078193873167038,0.0,0.0,0.0,0.0,0.0,0.0,0.0,0.0,0.0,0.1884615421295166,-0.09153846651315689,9.755127906799316,0.0,0.0,0.0,0.0,0.0,0.0,0.0,0.0,0.0
1646350744.1592803,6465,1646350744,158869208,,0.0,0.0,0.0,0.0,0.0,0.0,0.0,0.0,0.0,0.0,0.0,0.0,0.0,-0.4986943006515503,-0.015861930325627327,0.08463038504123688,0.0,0.0,0.0,0.0,0.0,0.0,0.0,0.0,0.0,0.22794872522354126,0.05025641247630119,9.776666641235352,0.0,0.0,0.0,0.0,0.0,0.0,0.0,0.0,0.0
1646350744.1615937,6466,1646350744,161115307,,0.0,0.0,0.0,0.0,0.0,0.0,0.0,0.0,0.0,0.0,0.0,0.0,0.0,-0.5072163939476013,-0.02118825353682041,0.07823879271745682,0.0,0.0,0.0,0.0,0.0,0.0,0.0,0.0,0.0,0.16333334147930145,-0.2566666603088379,9.417692184448242,0.0,0.0,0.0,0.0,0.0,0.0,0.0,0.0,0.0
1646350744.1637433,6467,1646350744,163317715,,0.0,0.0,0.0,0.0,0.0,0.0,0.0,0.0,0.0,0.0,0.0,0.0,0.0,-0.49123743176460266,0.003312827320769429,0.08676090836524963,0.0,0.0,0.0,0.0,0.0,0.0,0.0,0.0,0.0,0.06461538374423981,-0.3410256505012512,9.410512924194336,0.0,0.0,0.0,0.0,0.0,0.0,0.0,0.0,0.0
1646350744.1656864,6468,1646350744,165511791,,0.0,0.0,0.0,0.0,0.0,0.0,0.0,0.0,0.0,0.0,0.0,0.0,0.0,-0.45501846075057983,-0.008405081927776337,0.051607176661491394,0.0,0.0,0.0,0.0,0.0,0.0,0.0,0.0,0.0,0.10769230872392654,0.10051282495260239,9.563076972961426,0.0,0.0,0.0,0.0,0.0,0.0,0.0,0.0,0.0
1646350744.168191,6469,1646350744,167716920,,0.0,0.0,0.0,0.0,0.0,0.0,0.0,0.0,0.0,0.0,0.0,0.0,0.0,-0.46886688470840454,-0.0009482299210503697,0.07397773116827011,0.0,0.0,0.0,0.0,0.0,0.0,0.0,0.0,0.0,0.12564103305339813,-0.12743589282035828,9.460768699645996,0.0,0.0,0.0,0.0,0.0,0.0,0.0,0.0,0.0
1646350744.1704168,6470,1646350744,170029564,,0.0,0.0,0.0,0.0,0.0,0.0,0.0,0.0,0.0,0.0,0.0,0.0,0.0,-0.45927950739860535,0.00544335599988699,0.06439034640789032,0.0,0.0,0.0,0.0,0.0,0.0,0.0,0.0,0.0,0.05205128341913223,-0.03589743748307228,9.613333702087402,0.0,0.0,0.0,0.0,0.0,0.0,0.0,0.0,0.0
1646350744.1726854,6471,1646350744,172231590,,0.0,0.0,0.0,0.0,0.0,0.0,0.0,0.0,0.0,0.0,0.0,0.0,0.0,-0.4763237237930298,0.012900206260383129,0.07717353105545044,0.0,0.0,0.0,0.0,0.0,0.0,0.0,0.0,0.0,0.07538461685180664,-0.42000001668930054,9.419486999511719,0.0,0.0,0.0,0.0,0.0,0.0,0.0,0.0,0.0
1646350744.1749527,6472,1646350744,174489138,,0.0,0.0,0.0,0.0,0.0,0.0,0.0,0.0,0.0,0.0,0.0,0.0,0.0,-0.4795195460319519,0.007573884446173906,0.04841138795018196,0.0,0.0,0.0,0.0,0.0,0.0,0.0,0.0,0.0,0.3446153998374939,-0.2064102590084076,9.60076904296875,0.0,0.0,0.0,0.0,0.0,0.0,0.0,0.0,0.0
1646350744.177247,6473,1646350744,176707235,,0.0,0.0,0.0,0.0,0.0,0.0,0.0,0.0,0.0,0.0,0.0,0.0,0.0,-0.46780163049697876,0.019291793927550316,0.036693476140499115,0.0,0.0,0.0,0.0,0.0,0.0,0.0,0.0,0.0,0.25128206610679626,-0.3858974575996399,9.717435836791992,0.0,0.0,0.0,0.0,0.0,0.0,0.0,0.0,0.0
1646350744.179379,6474,1646350744,178926143,,0.0,0.0,0.0,0.0,0.0,0.0,0.0,0.0,0.0,0.0,0.0,0.0,0.0,-0.4837805926799774,0.011834941804409027,0.04628085717558861,0.0,0.0,0.0,0.0,0.0,0.0,0.0,0.0,0.0,0.03410256281495094,-0.12025640904903412,9.692307472229004,0.0,0.0,0.0,0.0,0.0,0.0,0.0,0.0,0.0
1646350744.1816247,6475,1646350744,181148575,,0.0,0.0,0.0,0.0,0.0,0.0,0.0,0.0,0.0,0.0,0.0,0.0,0.0,-0.512542724609375,0.016095999628305435,0.04415033012628555,0.0,0.0,0.0,0.0,0.0,0.0,0.0,0.0,0.0,0.14538460969924927,-0.2943589687347412,9.455384254455566,0.0,0.0,0.0,0.0,0.0,0.0,0.0,0.0,0.0
1646350744.1845257,6476,1646350744,183451503,,0.0,0.0,0.0,0.0,0.0,0.0,0.0,0.0,0.0,0.0,0.0,0.0,0.0,-0.4901721775531769,0.011834941804409027,0.03136715292930603,0.0,0.0,0.0,0.0,0.0,0.0,0.0,0.0,0.0,0.29076921939849854,0.18666666746139526,9.676154136657715,0.0,0.0,0.0,0.0,0.0,0.0,0.0,0.0,0.0
1646350744.1861122,6477,1646350744,185705637,,0.0,0.0,0.0,0.0,0.0,0.0,0.0,0.0,0.0,0.0,0.0,0.0,0.0,-0.4997595548629761,0.023552851751446724,0.03882400318980217,0.0,0.0,0.0,0.0,0.0,0.0,0.0,0.0,0.0,0.06102564185857773,-0.2943589687347412,9.735384941101074,0.0,0.0,0.0,0.0,0.0,0.0,0.0,0.0,0.0
1646350744.1883087,6478,1646350744,187947123,,0.0,0.0,0.0,0.0,0.0,0.0,0.0,0.0,0.0,0.0,0.0,0.0,0.0,-0.5114774703979492,0.016095999628305435,0.03882400318980217,0.0,0.0,0.0,0.0,0.0,0.0,0.0,0.0,0.0,-0.09333333373069763,-0.4917948842048645,9.430255889892578,0.0,0.0,0.0,0.0,0.0,0.0,0.0,0.0,0.0
1646350744.190596,6479,1646350744,190228368,,0.0,0.0,0.0,0.0,0.0,0.0,0.0,0.0,0.0,0.0,0.0,0.0,0.0,-0.5189343094825745,0.020357057452201843,0.0047355457209050655,0.0,0.0,0.0,0.0,0.0,0.0,0.0,0.0,0.0,0.09692308306694031,-0.04307692497968674,9.767691612243652,0.0,0.0,0.0,0.0,0.0,0.0,0.0,0.0,0.0
1646350744.1927967,6480,1646350744,192441936,,0.0,0.0,0.0,0.0,0.0,0.0,0.0,0.0,0.0,0.0,0.0,0.0,0.0,-0.5381090641021729,0.020357057452201843,0.036693476140499115,0.0,0.0,0.0,0.0,0.0,0.0,0.0,0.0,0.0,0.1974359005689621,-0.048461541533470154,9.624102592468262,0.0,0.0,0.0,0.0,0.0,0.0,0.0,0.0,0.0
1646350744.1949978,6481,1646350744,194682315,,0.0,0.0,0.0,0.0,0.0,0.0,0.0,0.0,0.0,0.0,0.0,0.0,0.0,-0.5913723707199097,0.007573884446173906,0.02710609696805477,0.0,0.0,0.0,0.0,0.0,0.0,0.0,0.0,0.0,0.3715384900569916,0.23333333432674408,9.564871788024902,0.0,0.0,0.0,0.0,0.0,0.0,0.0,0.0,0.0
1646350744.19728,6482,1646350744,196905537,,0.0,0.0,0.0,0.0,0.0,0.0,0.0,0.0,0.0,0.0,0.0,0.0,0.0,-0.5658060312271118,0.00224756239913404,0.0281713604927063,0.0,0.0,0.0,0.0,0.0,0.0,0.0,0.0,0.0,0.4146153926849365,-0.2997435927391052,9.785640716552734,0.0,0.0,0.0,0.0,0.0,0.0,0.0,0.0,0.0
1646350744.2006829,6483,1646350744,199156183,,0.0,0.0,0.0,0.0,0.0,0.0,0.0,0.0,0.0,0.0,0.0,0.0,0.0,-0.6180039644241333,0.012900206260383129,0.03775873780250549,0.0,0.0,0.0,0.0,0.0,0.0,0.0,0.0,0.0,0.2746153771877289,-0.32307693362236023,9.64025592803955,0.0,0.0,0.0,0.0,0.0,0.0,0.0,0.0,0.0
1646350744.2016687,6484,1646350744,201359087,,0.0,0.0,0.0,0.0,0.0,0.0,0.0,0.0,0.0,0.0,0.0,0.0,0.0,-0.6041555404663086,0.029944438487291336,0.010061867535114288,0.0,0.0,0.0,0.0,0.0,0.0,0.0,0.0,0.0,0.0735897421836853,-0.33743590116500854,9.557692527770996,0.0,0.0,0.0,0.0,0.0,0.0,0.0,0.0,0.0
1646350744.2039583,6485,1646350744,203559033,,0.0,0.0,0.0,0.0,0.0,0.0,0.0,0.0,0.0,0.0,0.0,0.0,0.0,-0.602025032043457,0.015030735172331333,0.03243241831660271,0.0,0.0,0.0,0.0,0.0,0.0,0.0,0.0,0.0,0.21717949211597443,-0.43435898423194885,9.577435493469238,0.0,0.0,0.0,0.0,0.0,0.0,0.0,0.0,0.0
1646350744.2061522,6486,1646350744,205815861,,0.0,0.0,0.0,0.0,0.0,0.0,0.0,0.0,0.0,0.0,0.0,0.0,0.0,-0.6243955492973328,0.02142232283949852,0.03562821075320244,0.0,0.0,0.0,0.0,0.0,0.0,0.0,0.0,0.0,0.12923076748847961,0.028717949986457825,9.852051734924316,0.0,0.0,0.0,0.0,0.0,0.0,0.0,0.0,0.0
1646350744.2085164,6487,1646350744,208031881,,0.0,0.0,0.0,0.0,0.0,0.0,0.0,0.0,0.0,0.0,0.0,0.0,0.0,-0.6094818711280823,0.010769677348434925,0.00686607463285327,0.0,0.0,0.0,0.0,0.0,0.0,0.0,0.0,0.0,0.14358974993228912,-0.5061538815498352,9.315383911132812,0.0,0.0,0.0,0.0,0.0,0.0,0.0,0.0,0.0
1646350744.2106032,6488,1646350744,210243303,,0.0,0.0,0.0,0.0,0.0,0.0,0.0,0.0,0.0,0.0,0.0,0.0,0.0,-0.6574187874794006,0.029944438487291336,0.029236625880002975,0.0,0.0,0.0,0.0,0.0,0.0,0.0,0.0,0.0,0.2028205245733261,-0.1382051259279251,9.738973617553711,0.0,0.0,0.0,0.0,0.0,0.0,0.0,0.0,0.0
1646350744.2128525,6489,1646350744,212542684,,0.0,0.0,0.0,0.0,0.0,0.0,0.0,0.0,0.0,0.0,0.0,0.0,0.0,-0.6425050497055054,0.02887917309999466,0.03775873780250549,0.0,0.0,0.0,0.0,0.0,0.0,0.0,0.0,0.0,-0.010769231244921684,-0.4541025757789612,9.715641021728516,0.0,0.0,0.0,0.0,0.0,0.0,0.0,0.0,0.0
1646350744.215162,6490,1646350744,214799242,,0.0,0.0,0.0,0.0,0.0,0.0,0.0,0.0,0.0,0.0,0.0,0.0,0.0,-0.6414397954940796,0.03740128502249718,0.03775873780250549,0.0,0.0,0.0,0.0,0.0,0.0,0.0,0.0,0.0,-0.030512820929288864,-0.5600000023841858,9.374615669250488,0.0,0.0,0.0,0.0,0.0,0.0,0.0,0.0,0.0
1646350744.217493,6491,1646350744,217083032,,0.0,0.0,0.0,0.0,0.0,0.0,0.0,0.0,0.0,0.0,0.0,0.0,0.0,-0.614808201789856,0.027813909575343132,0.012192396447062492,0.0,0.0,0.0,0.0,0.0,0.0,0.0,0.0,0.0,-0.06102564185857773,-0.5492307543754578,9.627692222595215,0.0,0.0,0.0,0.0,0.0,0.0,0.0,0.0,0.0
1646350744.2198172,6492,1646350744,219459633,,0.0,0.0,0.0,0.0,0.0,0.0,0.0,0.0,0.0,0.0,0.0,0.0,0.0,-0.6137428879737854,0.06296762824058533,0.039889272302389145,0.0,0.0,0.0,0.0,0.0,0.0,0.0,0.0,0.0,0.2943589687347412,-0.5456410050392151,9.243589401245117,0.0,0.0,0.0,0.0,0.0,0.0,0.0,0.0,0.0
1646350744.222131,6493,1646350744,221696073,,0.0,0.0,0.0,0.0,0.0,0.0,0.0,0.0,0.0,0.0,0.0,0.0,0.0,-0.6030902862548828,0.03314023092389107,0.017518719658255577,0.0,0.0,0.0,0.0,0.0,0.0,0.0,0.0,0.0,-0.31589746475219727,-0.6102564334869385,9.069487571716309,0.0,0.0,0.0,0.0,0.0,0.0,0.0,0.0,0.0
1646350744.224354,6494,1646350744,223945219,,0.0,0.0,0.0,0.0,0.0,0.0,0.0,0.0,0.0,0.0,0.0,0.0,0.0,-0.5903071165084839,0.04059707745909691,-0.008047626353800297,0.0,0.0,0.0,0.0,0.0,0.0,0.0,0.0,0.0,-0.003589743748307228,-0.44333335757255554,9.941795349121094,0.0,0.0,0.0,0.0,0.0,0.0,0.0,0.0,0.0
1646350744.2271245,6495,1646350744,226175801,,0.0,0.0,0.0,0.0,0.0,0.0,0.0,0.0,0.0,0.0,0.0,0.0,0.0,-0.577523946762085,0.04379286989569664,-0.0005907765007577837,0.0,0.0,0.0,0.0,0.0,0.0,0.0,0.0,0.0,-0.11307692527770996,-0.8202564120292664,8.828974723815918,0.0,0.0,0.0,0.0,0.0,0.0,0.0,0.0,0.0
1646350744.2287803,6496,1646350744,228448715,,0.0,0.0,0.0,0.0,0.0,0.0,0.0,0.0,0.0,0.0,0.0,0.0,0.0,-0.5626102089881897,0.06829395145177841,0.0036702812649309635,0.0,0.0,0.0,0.0,0.0,0.0,0.0,0.0,0.0,0.12205128371715546,-0.5653846263885498,10.060256004333496,0.0,0.0,0.0,0.0,0.0,0.0,0.0,0.0,0.0
1646350744.2309961,6497,1646350744,230718879,,0.0,0.0,0.0,0.0,0.0,0.0,0.0,0.0,0.0,0.0,0.0,0.0,0.0,-0.5168038010597229,0.020357057452201843,-0.01976553350687027,0.0,0.0,0.0,0.0,0.0,0.0,0.0,0.0,0.0,0.29076921939849854,-0.7287179827690125,9.421281814575195,0.0,0.0,0.0,0.0,0.0,0.0,0.0,0.0,0.0
1646350744.2333324,6498,1646350744,232927411,,0.0,0.0,0.0,0.0,0.0,0.0,0.0,0.0,0.0,0.0,0.0,0.0,0.0,-0.4709974229335785,0.006508619990199804,-0.014439214020967484,0.0,0.0,0.0,0.0,0.0,0.0,0.0,0.0,0.0,0.26384615898132324,0.007179487496614456,9.584615707397461,0.0,0.0,0.0,0.0,0.0,0.0,0.0,0.0,0.0
1646350744.2355816,6499,1646350744,235084768,,0.0,0.0,0.0,0.0,0.0,0.0,0.0,0.0,0.0,0.0,0.0,0.0,0.0,-0.4518226683139801,0.015030735172331333,0.0047355457209050655,0.0,0.0,0.0,0.0,0.0,0.0,0.0,0.0,0.0,0.2064102590084076,-0.6964102983474731,9.333333015441895,0.0,0.0,0.0,0.0,0.0,0.0,0.0,0.0,0.0
1646350744.237752,6500,1646350744,237300862,,0.0,0.0,0.0,0.0,0.0,0.0,0.0,0.0,0.0,0.0,0.0,0.0,0.0,-0.44117000699043274,0.009704413823783398,-0.015504478476941586,0.0,0.0,0.0,0.0,0.0,0.0,0.0,0.0,0.0,0.2476923167705536,-0.14538460969924927,10.05307674407959,0.0,0.0,0.0,0.0,0.0,0.0,0.0,0.0,0.0
1646350744.2400472,6501,1646350744,239618270,,0.0,0.0,0.0,0.0,0.0,0.0,0.0,0.0,0.0,0.0,0.0,0.0,0.0,-0.3772541582584381,-0.0147966668009758,-0.006982361897826195,0.0,0.0,0.0,0.0,0.0,0.0,0.0,0.0,0.0,0.16692309081554413,-0.4828205108642578,10.110512733459473,0.0,0.0,0.0,0.0,0.0,0.0,0.0,0.0,0.0
1646350744.2422233,6502,1646350744,241825297,,0.0,0.0,0.0,0.0,0.0,0.0,0.0,0.0,0.0,0.0,0.0,0.0,0.0,-0.3303825557231903,-0.004144023172557354,-0.0016560404328629375,0.0,0.0,0.0,0.0,0.0,0.0,0.0,0.0,0.0,0.032307691872119904,-0.6353846788406372,9.387179374694824,0.0,0.0,0.0,0.0,0.0,0.0,0.0,0.0,0.0
1646350744.2444196,6503,1646350744,244067448,,0.0,0.0,0.0,0.0,0.0,0.0,0.0,0.0,0.0,0.0,0.0,0.0,0.0,-0.2973593473434448,-0.03184089809656143,0.008996603079140186,0.0,0.0,0.0,0.0,0.0,0.0,0.0,0.0,0.0,0.15435898303985596,-0.16871795058250427,10.013589859008789,0.0,0.0,0.0,0.0,0.0,0.0,0.0,0.0,0.0
1646350744.2467399,6504,1646350744,246306942,,0.0,0.0,0.0,0.0,0.0,0.0,0.0,0.0,0.0,0.0,0.0,0.0,0.0,-0.24622663855552673,-0.03610195219516754,0.0047355457209050655,0.0,0.0,0.0,0.0,0.0,0.0,0.0,0.0,0.0,-0.1148717999458313,-0.6730769276618958,9.245384216308594,0.0,0.0,0.0,0.0,0.0,0.0,0.0,0.0,0.0
1646350744.2491217,6505,1646350744,248620161,,0.0,0.0,0.0,0.0,0.0,0.0,0.0,0.0,0.0,0.0,0.0,0.0,0.0,-0.243030846118927,-0.04995039105415344,0.0058008101768791676,0.0,0.0,0.0,0.0,0.0,0.0,0.0,0.0,0.0,-0.05743589997291565,-0.39846155047416687,10.289999961853027,0.0,0.0,0.0,0.0,0.0,0.0,0.0,0.0,0.0
1646350744.251265,6506,1646350744,250864830,,0.0,0.0,0.0,0.0,0.0,0.0,0.0,0.0,0.0,0.0,0.0,0.0,0.0,-0.18870235979557037,-0.016927195712924004,0.000474488188046962,0.0,0.0,0.0,0.0,0.0,0.0,0.0,0.0,0.0,-0.22615385055541992,-0.36974361538887024,9.9005126953125,0.0,0.0,0.0,0.0,0.0,0.0,0.0,0.0,0.0
1646350744.2536066,6507,1646350744,253126864,,0.0,0.0,0.0,0.0,0.0,0.0,0.0,0.0,0.0,0.0,0.0,0.0,0.0,-0.17698444426059723,-0.04355880245566368,0.015388189814984798,0.0,0.0,0.0,0.0,0.0,0.0,0.0,0.0,0.0,-0.07538461685180664,-0.2853846251964569,9.871794700622559,0.0,0.0,0.0,0.0,0.0,0.0,0.0,0.0,0.0
1646350744.2557828,6508,1646350744,255341477,,0.0,0.0,0.0,0.0,0.0,0.0,0.0,0.0,0.0,0.0,0.0,0.0,0.0,-0.16633182764053345,-0.04355880245566368,-0.0101781552657485,0.0,0.0,0.0,0.0,0.0,0.0,0.0,0.0,0.0,-0.21717949211597443,-0.6856410503387451,9.934615135192871,0.0,0.0,0.0,0.0,0.0,0.0,0.0,0.0,0.0
1646350744.2579298,6509,1646350744,257532882,,0.0,0.0,0.0,0.0,0.0,0.0,0.0,0.0,0.0,0.0,0.0,0.0,0.0,-0.16633182764053345,-0.03503669053316116,0.014322925359010696,0.0,0.0,0.0,0.0,0.0,0.0,0.0,0.0,0.0,0.06820512562990189,-0.5294871926307678,9.970513343811035,0.0,0.0,0.0,0.0,0.0,0.0,0.0,0.0,0.0
1646350744.2602844,6510,1646350744,259801085,,0.0,0.0,0.0,0.0,0.0,0.0,0.0,0.0,0.0,0.0,0.0,0.0,0.0,-0.1365044116973877,-0.027579842135310173,-0.0005907765007577837,0.0,0.0,0.0,0.0,0.0,0.0,0.0,0.0,0.0,-0.23153845965862274,-0.23692308366298676,10.00820541381836,0.0,0.0,0.0,0.0,0.0,0.0,0.0,0.0,0.0
1646350744.2624323,6511,1646350744,262036623,,0.0,0.0,0.0,0.0,0.0,0.0,0.0,0.0,0.0,0.0,0.0,0.0,0.0,-0.1684623509645462,-0.012666137889027596,-0.0005907765007577837,0.0,0.0,0.0,0.0,0.0,0.0,0.0,0.0,0.0,-0.2800000011920929,-0.5079486966133118,9.60076904296875,0.0,0.0,0.0,0.0,0.0,0.0,0.0,0.0,0.0
1646350744.264644,6512,1646350744,264303671,,0.0,0.0,0.0,0.0,0.0,0.0,0.0,0.0,0.0,0.0,0.0,0.0,0.0,-0.13011282682418823,0.007573884446173906,0.0015397525858134031,0.0,0.0,0.0,0.0,0.0,0.0,0.0,0.0,0.0,-0.3087179660797119,-0.4325641095638275,10.00820541381836,0.0,0.0,0.0,0.0,0.0,0.0,0.0,0.0,0.0
1646350744.266983,6513,1646350744,266572123,,0.0,0.0,0.0,0.0,0.0,0.0,0.0,0.0,0.0,0.0,0.0,0.0,0.0,-0.12904757261276245,-0.0009482299210503697,0.010061867535114288,0.0,0.0,0.0,0.0,0.0,0.0,0.0,0.0,0.0,-0.4002564251422882,-0.8256410360336304,9.807180404663086,0.0,0.0,0.0,0.0,0.0,0.0,0.0,0.0,0.0
1646350744.2704372,6514,1646350744,268855151,,0.0,0.0,0.0,0.0,0.0,0.0,0.0,0.0,0.0,0.0,0.0,0.0,0.0,-0.14396126568317413,0.001182297826744616,-0.005917098838835955,0.0,0.0,0.0,0.0,0.0,0.0,0.0,0.0,0.0,-0.016153845936059952,-0.4541025757789612,9.717435836791992,0.0,0.0,0.0,0.0,0.0,0.0,0.0,0.0,0.0
1646350744.271488,6515,1646350744,271087119,,0.0,0.0,0.0,0.0,0.0,0.0,0.0,0.0,0.0,0.0,0.0,0.0,0.0,-0.14715705811977386,-0.003078758716583252,-0.015504478476941586,0.0,0.0,0.0,0.0,0.0,0.0,0.0,0.0,0.0,0.05384615436196327,-0.2710256576538086,9.826923370361328,0.0,0.0,0.0,0.0,0.0,0.0,0.0,0.0,0.0
1646350744.2737727,6516,1646350744,273326773,,0.0,0.0,0.0,0.0,0.0,0.0,0.0,0.0,0.0,0.0,0.0,0.0,0.0,-0.1407654732465744,0.022487586364150047,0.017518719658255577,0.0,0.0,0.0,0.0,0.0,0.0,0.0,0.0,0.0,-0.32846155762672424,-0.4505128264427185,9.686923027038574,0.0,0.0,0.0,0.0,0.0,0.0,0.0,0.0,0.0
1646350744.2759247,6517,1646350744,275529455,,0.0,0.0,0.0,0.0,0.0,0.0,0.0,0.0,0.0,0.0,0.0,0.0,0.0,-0.16313602030277252,0.001182297826744616,-0.03041817992925644,0.0,0.0,0.0,0.0,0.0,0.0,0.0,0.0,0.0,-0.17769230902194977,-0.2297435998916626,9.963333129882812,0.0,0.0,0.0,0.0,0.0,0.0,0.0,0.0,0.0
1646350744.278118,6518,1646350744,277786886,,0.0,0.0,0.0,0.0,0.0,0.0,0.0,0.0,0.0,0.0,0.0,0.0,0.0,-0.16313602030277252,0.017161265015602112,0.013257660903036594,0.0,0.0,0.0,0.0,0.0,0.0,0.0,0.0,0.0,0.044871795922517776,-0.4882051348686218,9.808974266052246,0.0,0.0,0.0,0.0,0.0,0.0,0.0,0.0,0.0
1646350744.2804956,6519,1646350744,280028389,,0.0,0.0,0.0,0.0,0.0,0.0,0.0,0.0,0.0,0.0,0.0,0.0,0.0,-0.18124550580978394,0.00544335599988699,-0.02296132780611515,0.0,0.0,0.0,0.0,0.0,0.0,0.0,0.0,0.0,0.3589743673801422,-0.1794871836900711,9.64923095703125,0.0,0.0,0.0,0.0,0.0,0.0,0.0,0.0,0.0
1646350744.2826936,6520,1646350744,282272704,,0.0,0.0,0.0,0.0,0.0,0.0,0.0,0.0,0.0,0.0,0.0,0.0,0.0,-0.2014855295419693,0.02461811527609825,-0.0101781552657485,0.0,0.0,0.0,0.0,0.0,0.0,0.0,0.0,0.0,0.4792307913303375,-0.4182051420211792,9.638461112976074,0.0,0.0,0.0,0.0,0.0,0.0,0.0,0.0,0.0
1646350744.2847471,6521,1646350744,284481335,,0.0,0.0,0.0,0.0,0.0,0.0,0.0,0.0,0.0,0.0,0.0,0.0,0.0,-0.21746449172496796,0.011834941804409027,-0.006982361897826195,0.0,0.0,0.0,0.0,0.0,0.0,0.0,0.0,0.0,0.27820512652397156,-0.03589743748307228,9.676154136657715,0.0,0.0,0.0,0.0,0.0,0.0,0.0,0.0,0.0
1646350744.2871916,6522,1646350744,286745025,,0.0,0.0,0.0,0.0,0.0,0.0,0.0,0.0,0.0,0.0,0.0,0.0,0.0,-0.2068118453025818,0.010769677348434925,-0.004851834382861853,0.0,0.0,0.0,0.0,0.0,0.0,0.0,0.0,0.0,0.19025641679763794,-0.4828205108642578,9.785640716552734,0.0,0.0,0.0,0.0,0.0,0.0,0.0,0.0,0.0
1646350744.289404,6523,1646350744,288985404,,0.0,0.0,0.0,0.0,0.0,0.0,0.0,0.0,0.0,0.0,0.0,0.0,0.0,-0.24409610033035278,0.004378091543912888,0.008996603079140186,0.0,0.0,0.0,0.0,0.0,0.0,0.0,0.0,0.0,-0.15794873237609863,-0.6874359250068665,9.543333053588867,0.0,0.0,0.0,0.0,0.0,0.0,0.0,0.0,0.0
1646350744.2913995,6524,1646350744,291187988,,0.0,0.0,0.0,0.0,0.0,0.0,0.0,0.0,0.0,0.0,0.0,0.0,0.0,-0.27285826206207275,0.011834941804409027,0.0015397525858134031,0.0,0.0,0.0,0.0,0.0,0.0,0.0,0.0,0.0,0.15076923370361328,-0.23512820899486542,9.923846244812012,0.0,0.0,0.0,0.0,0.0,0.0,0.0,0.0,0.0
1646350744.2937963,6525,1646350744,293392096,,0.0,0.0,0.0,0.0,0.0,0.0,0.0,0.0,0.0,0.0,0.0,0.0,0.0,-0.2622056007385254,-0.008405081927776337,-0.02296132780611515,0.0,0.0,0.0,0.0,0.0,0.0,0.0,0.0,0.0,0.10769230872392654,-0.4235897660255432,9.511025428771973,0.0,0.0,0.0,0.0,0.0,0.0,0.0,0.0,0.0
1646350744.2958453,6526,1646350744,295594419,,0.0,0.0,0.0,0.0,0.0,0.0,0.0,0.0,0.0,0.0,0.0,0.0,0.0,-0.29629409313201904,-0.007339817471802235,-0.012308684177696705,0.0,0.0,0.0,0.0,0.0,0.0,0.0,0.0,0.0,0.34641027450561523,-0.06820512562990189,9.927435874938965,0.0,0.0,0.0,0.0,0.0,0.0,0.0,0.0,0.0
1646350744.2982337,6527,1646350744,297837156,,0.0,0.0,0.0,0.0,0.0,0.0,0.0,0.0,0.0,0.0,0.0,0.0,0.0,-0.32825201749801636,-0.008405081927776337,0.024975569918751717,0.0,0.0,0.0,0.0,0.0,0.0,0.0,0.0,0.0,-0.07538461685180664,-0.6838461756706238,9.39435863494873,0.0,0.0,0.0,0.0,0.0,0.0,0.0,0.0,0.0
1646350744.3005934,6528,1646350744,300117185,,0.0,0.0,0.0,0.0,0.0,0.0,0.0,0.0,0.0,0.0,0.0,0.0,0.0,-0.33251306414604187,-0.016927195712924004,0.0058008101768791676,0.0,0.0,0.0,0.0,0.0,0.0,0.0,0.0,0.0,0.03410256281495094,-0.17230769991874695,9.830512046813965,0.0,0.0,0.0,0.0,0.0,0.0,0.0,0.0,0.0
1646350744.3027766,6529,1646350744,302339373,,0.0,0.0,0.0,0.0,0.0,0.0,0.0,0.0,0.0,0.0,0.0,0.0,0.0,-0.3463614881038666,0.003312827320769429,0.0047355457209050655,0.0,0.0,0.0,0.0,0.0,0.0,0.0,0.0,0.0,-0.12743589282035828,-0.3482051491737366,9.916666030883789,0.0,0.0,0.0,0.0,0.0,0.0,0.0,0.0,0.0
1646350744.3049011,6530,1646350744,304597100,,0.0,0.0,0.0,0.0,0.0,0.0,0.0,0.0,0.0,0.0,0.0,0.0,0.0,-0.37192782759666443,-0.029710371047258377,-0.004851834382861853,0.0,0.0,0.0,0.0,0.0,0.0,0.0,0.0,0.0,0.15794873237609863,-0.5635897517204285,9.530769348144531,0.0,0.0,0.0,0.0,0.0,0.0,0.0,0.0,0.0
1646350744.307865,6531,1646350744,306815051,,0.0,0.0,0.0,0.0,0.0,0.0,0.0,0.0,0.0,0.0,0.0,0.0,0.0,-0.39003732800483704,-0.019057724624872208,-0.009112890809774399,0.0,0.0,0.0,0.0,0.0,0.0,0.0,0.0,0.0,0.13102564215660095,-0.6371794939041138,9.852051734924316,0.0,0.0,0.0,0.0,0.0,0.0,0.0,0.0,0.0
1646350744.309495,6532,1646350744,309151057,,0.0,0.0,0.0,0.0,0.0,0.0,0.0,0.0,0.0,0.0,0.0,0.0,0.0,-0.4070815443992615,-0.013731402345001698,0.01964924857020378,0.0,0.0,0.0,0.0,0.0,0.0,0.0,0.0,0.0,0.12743589282035828,-0.5402564406394958,9.586410522460938,0.0,0.0,0.0,0.0,0.0,0.0,0.0,0.0,0.0
1646350744.3119404,6533,1646350744,311412115,,0.0,0.0,0.0,0.0,0.0,0.0,0.0,0.0,0.0,0.0,0.0,0.0,0.0,-0.4251910448074341,-0.007339817471802235,0.0015397525858134031,0.0,0.0,0.0,0.0,0.0,0.0,0.0,0.0,0.0,-0.09692308306694031,-0.35179489850997925,9.936410903930664,0.0,0.0,0.0,0.0,0.0,0.0,0.0,0.0,0.0
1646350744.3140845,6534,1646350744,313695735,,0.0,0.0,0.0,0.0,0.0,0.0,0.0,0.0,0.0,0.0,0.0,0.0,0.0,-0.3868415355682373,-0.013731402345001698,0.00686607463285327,0.0,0.0,0.0,0.0,0.0,0.0,0.0,0.0,0.0,-0.11128205060958862,-1.0069230794906616,9.503846168518066,0.0,0.0,0.0,0.0,0.0,0.0,0.0,0.0,0.0
1646350744.316483,6535,1646350744,316118973,,0.0,0.0,0.0,0.0,0.0,0.0,0.0,0.0,0.0,0.0,0.0,0.0,0.0,-0.44969213008880615,-0.006274553015828133,0.0164534542709589,0.0,0.0,0.0,0.0,0.0,0.0,0.0,0.0,0.0,-0.06102564185857773,-0.7682051658630371,9.279486656188965,0.0,0.0,0.0,0.0,0.0,0.0,0.0,0.0,0.0
1646350744.318736,6536,1646350744,318368222,,0.0,0.0,0.0,0.0,0.0,0.0,0.0,0.0,0.0,0.0,0.0,0.0,0.0,-0.40388575196266174,-0.0020134944934397936,-0.0101781552657485,0.0,0.0,0.0,0.0,0.0,0.0,0.0,0.0,0.0,0.03410256281495094,-0.5007692575454712,9.857436180114746,0.0,0.0,0.0,0.0,0.0,0.0,0.0,0.0,0.0
1646350744.3210168,6537,1646350744,320614407,,0.0,0.0,0.0,0.0,0.0,0.0,0.0,0.0,0.0,0.0,0.0,0.0,0.0,-0.42199525237083435,-0.008405081927776337,0.01964924857020378,0.0,0.0,0.0,0.0,0.0,0.0,0.0,0.0,0.0,0.12564103305339813,-0.5169230699539185,9.372819900512695,0.0,0.0,0.0,0.0,0.0,0.0,0.0,0.0,0.0
1646350744.3231556,6538,1646350744,322825910,,0.0,0.0,0.0,0.0,0.0,0.0,0.0,0.0,0.0,0.0,0.0,0.0,0.0,-0.4092120826244354,0.008639149367809296,0.01112713199108839,0.0,0.0,0.0,0.0,0.0,0.0,0.0,0.0,0.0,0.06102564185857773,-0.7125641107559204,9.493077278137207,0.0,0.0,0.0,0.0,0.0,0.0,0.0,0.0,0.0
1646350744.3254087,6539,1646350744,325107655,,0.0,0.0,0.0,0.0,0.0,0.0,0.0,0.0,0.0,0.0,0.0,0.0,0.0,-0.3772541582584381,0.00224756239913404,0.0558682344853878,0.0,0.0,0.0,0.0,0.0,0.0,0.0,0.0,0.0,-0.08974359184503555,-0.926153838634491,9.157435417175293,0.0,0.0,0.0,0.0,0.0,0.0,0.0,0.0,0.0
1646350744.3277872,6540,1646350744,327344999,,0.0,0.0,0.0,0.0,0.0,0.0,0.0,0.0,0.0,0.0,0.0,0.0,0.0,-0.3548835813999176,-0.006274553015828133,0.010061867535114288,0.0,0.0,0.0,0.0,0.0,0.0,0.0,0.0,0.0,-0.007179487496614456,-0.5510256290435791,9.683333396911621,0.0,0.0,0.0,0.0,0.0,0.0,0.0,0.0,0.0
1646350744.3300474,6541,1646350744,329597200,,0.0,0.0,0.0,0.0,0.0,0.0,0.0,0.0,0.0,0.0,0.0,0.0,0.0,-0.33251306414604187,-0.005209287628531456,0.04521559551358223,0.0,0.0,0.0,0.0,0.0,0.0,0.0,0.0,0.0,0.02153846248984337,-1.0482051372528076,9.239999771118164,0.0,0.0,0.0,0.0,0.0,0.0,0.0,0.0,0.0
1646350744.3323755,6542,1646350744,331980728,,0.0,0.0,0.0,0.0,0.0,0.0,0.0,0.0,0.0,0.0,0.0,0.0,0.0,-0.30162039399147034,0.012900206260383129,-0.004851834382861853,0.0,0.0,0.0,0.0,0.0,0.0,0.0,0.0,0.0,0.23512820899486542,-0.3625641167163849,9.500256538391113,0.0,0.0,0.0,0.0,0.0,0.0,0.0,0.0,0.0
1646350744.3348074,6543,1646350744,334343023,,0.0,0.0,0.0,0.0,0.0,0.0,0.0,0.0,0.0,0.0,0.0,0.0,0.0,-0.23557399213314056,-0.0147966668009758,0.024975569918751717,0.0,0.0,0.0,0.0,0.0,0.0,0.0,0.0,0.0,0.19923077523708344,-0.6982051730155945,9.631281852722168,0.0,0.0,0.0,0.0,0.0,0.0,0.0,0.0,0.0
1646350744.336975,6544,1646350744,336602940,,0.0,0.0,0.0,0.0,0.0,0.0,0.0,0.0,0.0,0.0,0.0,0.0,0.0,-0.23770451545715332,0.00224756239913404,0.030301889404654503,0.0,0.0,0.0,0.0,0.0,0.0,0.0,0.0,0.0,0.1561538577079773,-0.6282051801681519,9.175384521484375,0.0,0.0,0.0,0.0,0.0,0.0,0.0,0.0,0.0
1646350744.3391747,6545,1646350744,338843433,,0.0,0.0,0.0,0.0,0.0,0.0,0.0,0.0,0.0,0.0,0.0,0.0,0.0,-0.18124550580978394,0.017161265015602112,0.03243241831660271,0.0,0.0,0.0,0.0,0.0,0.0,0.0,0.0,0.0,-0.001794871874153614,-0.5941025614738464,9.665384292602539,0.0,0.0,0.0,0.0,0.0,0.0,0.0,0.0,0.0
1646350744.3413675,6546,1646350744,341077204,,0.0,0.0,0.0,0.0,0.0,0.0,0.0,0.0,0.0,0.0,0.0,0.0,0.0,-0.1365044116973877,-0.01799245923757553,0.022845041006803513,0.0,0.0,0.0,0.0,0.0,0.0,0.0,0.0,0.0,-0.07179487496614456,-0.890256404876709,9.168205261230469,0.0,0.0,0.0,0.0,0.0,0.0,0.0,0.0,0.0
1646350744.3438632,6547,1646350744,343347363,,0.0,0.0,0.0,0.0,0.0,0.0,0.0,0.0,0.0,0.0,0.0,0.0,0.0,-0.07791487127542496,0.00544335599988699,0.04521559551358223,0.0,0.0,0.0,0.0,0.0,0.0,0.0,0.0,0.0,0.3141025900840759,-0.41641026735305786,9.435641288757324,0.0,0.0,0.0,0.0,0.0,0.0,0.0,0.0,0.0
1646350744.345984,6548,1646350744,345633511,,0.0,0.0,0.0,0.0,0.0,0.0,0.0,0.0,0.0,0.0,0.0,0.0,0.0,-0.053413789719343185,0.00544335599988699,0.021779777482151985,0.0,0.0,0.0,0.0,0.0,0.0,0.0,0.0,0.0,0.26025640964508057,-0.746666669845581,9.509230613708496,0.0,0.0,0.0,0.0,0.0,0.0,0.0,0.0,0.0
1646350744.3497665,6549,1646350744,347891265,,0.0,0.0,0.0,0.0,0.0,0.0,0.0,0.0,0.0,0.0,0.0,0.0,0.0,-0.04702220484614372,-0.004144023172557354,0.036693476140499115,0.0,0.0,0.0,0.0,0.0,0.0,0.0,0.0,0.0,0.14179487526416779,-0.4271794855594635,9.638461112976074,0.0,0.0,0.0,0.0,0.0,0.0,0.0,0.0,0.0
1646350744.3504405,6550,1646350744,350095777,,0.0,0.0,0.0,0.0,0.0,0.0,0.0,0.0,0.0,0.0,0.0,0.0,0.0,-0.01506427489221096,0.00224756239913404,0.015388189814984798,0.0,0.0,0.0,0.0,0.0,0.0,0.0,0.0,0.0,0.17230769991874695,-0.6497436165809631,9.615128517150879,0.0,0.0,0.0,0.0,0.0,0.0,0.0,0.0,0.0
1646350744.3525903,6551,1646350744,352296076,,0.0,0.0,0.0,0.0,0.0,0.0,0.0,0.0,0.0,0.0,0.0,0.0,0.0,0.02008945122361183,-0.010535608977079391,0.03775873780250549,0.0,0.0,0.0,0.0,0.0,0.0,0.0,0.0,0.0,-0.12923076748847961,-0.8866667151451111,9.511025428771973,0.0,0.0,0.0,0.0,0.0,0.0,0.0,0.0,0.0
1646350744.354901,6552,1646350744,354520507,,0.0,0.0,0.0,0.0,0.0,0.0,0.0,0.0,0.0,0.0,0.0,0.0,0.0,0.03500314801931381,0.001182297826744616,0.02391030639410019,0.0,0.0,0.0,0.0,0.0,0.0,0.0,0.0,0.0,0.04307692497968674,-0.5510256290435791,9.817949295043945,0.0,0.0,0.0,0.0,0.0,0.0,0.0,0.0,0.0
1646350744.3571117,6553,1646350744,356755189,,0.0,0.0,0.0,0.0,0.0,0.0,0.0,0.0,0.0,0.0,0.0,0.0,0.0,0.044590532779693604,0.00224756239913404,0.03456294909119606,0.0,0.0,0.0,0.0,0.0,0.0,0.0,0.0,0.0,-0.07717949151992798,-0.6910256743431091,9.554102897644043,0.0,0.0,0.0,0.0,0.0,0.0,0.0,0.0,0.0
1646350744.359414,6554,1646350744,358980441,,0.0,0.0,0.0,0.0,0.0,0.0,0.0,0.0,0.0,0.0,0.0,0.0,0.0,0.03180735930800438,0.013965470716357231,0.00686607463285327,0.0,0.0,0.0,0.0,0.0,0.0,0.0,0.0,0.0,-0.06820512562990189,-0.4325641095638275,10.094359397888184,0.0,0.0,0.0,0.0,0.0,0.0,0.0,0.0,0.0
1646350744.3616755,6555,1646350744,361225781,,0.0,0.0,0.0,0.0,0.0,0.0,0.0,0.0,0.0,0.0,0.0,0.0,0.0,0.052047379314899445,-0.0020134944934397936,0.0047355457209050655,0.0,0.0,0.0,0.0,0.0,0.0,0.0,0.0,0.0,0.007179487496614456,-0.7574359178543091,9.674358367919922,0.0,0.0,0.0,0.0,0.0,0.0,0.0,0.0,0.0
1646350744.3638632,6556,1646350744,363505340,,0.0,0.0,0.0,0.0,0.0,0.0,0.0,0.0,0.0,0.0,0.0,0.0,0.0,0.03606841340661049,0.010769677348434925,-0.016569742932915688,0.0,0.0,0.0,0.0,0.0,0.0,0.0,0.0,0.0,0.12743589282035828,-0.4056410491466522,9.884359359741211,0.0,0.0,0.0,0.0,0.0,0.0,0.0,0.0,0.0
1646350744.3661778,6557,1646350744,365787776,,0.0,0.0,0.0,0.0,0.0,0.0,0.0,0.0,0.0,0.0,0.0,0.0,0.0,0.019024187698960304,0.00544335599988699,-0.0005907765007577837,0.0,0.0,0.0,0.0,0.0,0.0,0.0,0.0,0.0,0.17589744925498962,-0.7358974814414978,9.877179145812988,0.0,0.0,0.0,0.0,0.0,0.0,0.0,0.0,0.0
1646350744.3683355,6558,1646350744,368027429,,0.0,0.0,0.0,0.0,0.0,0.0,0.0,0.0,0.0,0.0,0.0,0.0,0.0,0.013697865419089794,-0.007339817471802235,0.007931338623166084,0.0,0.0,0.0,0.0,0.0,0.0,0.0,0.0,0.0,0.044871795922517776,-0.5348718166351318,9.751538276672363,0.0,0.0,0.0,0.0,0.0,0.0,0.0,0.0,0.0
1646350744.3706799,6559,1646350744,370250874,,0.0,0.0,0.0,0.0,0.0,0.0,0.0,0.0,0.0,0.0,0.0,0.0,0.0,0.009436807595193386,-0.005209287628531456,-0.031483445316553116,0.0,0.0,0.0,0.0,0.0,0.0,0.0,0.0,0.0,-0.10769230872392654,-0.26025640964508057,10.149999618530273,0.0,0.0,0.0,0.0,0.0,0.0,0.0,0.0,0.0
1646350744.3729296,6560,1646350744,372468090,,0.0,0.0,0.0,0.0,0.0,0.0,0.0,0.0,0.0,0.0,0.0,0.0,0.0,0.014763129875063896,0.007573884446173906,-0.013373949564993382,0.0,0.0,0.0,0.0,0.0,0.0,0.0,0.0,0.0,0.1328205168247223,-0.6210256814956665,9.744359016418457,0.0,0.0,0.0,0.0,0.0,0.0,0.0,0.0,0.0
1646350744.3750525,6561,1646350744,374758996,,0.0,0.0,0.0,0.0,0.0,0.0,0.0,0.0,0.0,0.0,0.0,0.0,0.0,0.0030452206265181303,0.013965470716357231,-0.025091856718063354,0.0,0.0,0.0,0.0,0.0,0.0,0.0,0.0,0.0,0.032307691872119904,-0.1705128252506256,10.182308197021484,0.0,0.0,0.0,0.0,0.0,0.0,0.0,0.0,0.0
1646350744.3774686,6562,1646350744,376983030,,0.0,0.0,0.0,0.0,0.0,0.0,0.0,0.0,0.0,0.0,0.0,0.0,0.0,0.014763129875063896,-0.006274553015828133,-0.018700269982218742,0.0,0.0,0.0,0.0,0.0,0.0,0.0,0.0,0.0,0.07000000029802322,-0.6012820601463318,9.733589172363281,0.0,0.0,0.0,0.0,0.0,0.0,0.0,0.0,0.0
1646350744.3803778,6563,1646350744,379185675,,0.0,0.0,0.0,0.0,0.0,0.0,0.0,0.0,0.0,0.0,0.0,0.0,0.0,0.02754630148410797,-0.003078758716583252,-0.04213608428835869,0.0,0.0,0.0,0.0,0.0,0.0,0.0,0.0,0.0,0.09153846651315689,-0.22435897588729858,10.035127639770508,0.0,0.0,0.0,0.0,0.0,0.0,0.0,0.0,0.0
1646350744.3818793,6564,1646350744,381391776,,0.0,0.0,0.0,0.0,0.0,0.0,0.0,0.0,0.0,0.0,0.0,0.0,0.0,0.014763129875063896,0.007573884446173906,-0.026157120242714882,0.0,0.0,0.0,0.0,0.0,0.0,0.0,0.0,0.0,0.0412820540368557,-0.22256410121917725,9.995640754699707,0.0,0.0,0.0,0.0,0.0,0.0,0.0,0.0,0.0
1646350744.3840065,6565,1646350744,383596686,,0.0,0.0,0.0,0.0,0.0,0.0,0.0,0.0,0.0,0.0,0.0,0.0,0.0,0.01156733650714159,0.008639149367809296,-0.028287649154663086,0.0,0.0,0.0,0.0,0.0,0.0,0.0,0.0,0.0,0.10948718339204788,-0.3356410562992096,9.577435493469238,0.0,0.0,0.0,0.0,0.0,0.0,0.0,0.0,0.0
1646350744.3861616,6566,1646350744,385813807,,0.0,0.0,0.0,0.0,0.0,0.0,0.0,0.0,0.0,0.0,0.0,0.0,0.0,0.012632600963115692,0.013965470716357231,-0.05278873071074486,0.0,0.0,0.0,0.0,0.0,0.0,0.0,0.0,0.0,0.12923076748847961,-0.22435897588729858,10.09794807434082,0.0,0.0,0.0,0.0,0.0,0.0,0.0,0.0,0.0
1646350744.3882806,6567,1646350744,388034234,,0.0,0.0,0.0,0.0,0.0,0.0,0.0,0.0,0.0,0.0,0.0,0.0,0.0,0.015828393399715424,0.003312827320769429,-0.043201349675655365,0.0,0.0,0.0,0.0,0.0,0.0,0.0,0.0,0.0,0.0735897421836853,-0.20820513367652893,9.74256420135498,0.0,0.0,0.0,0.0,0.0,0.0,0.0,0.0,0.0
1646350744.391561,6568,1646350744,390339186,,0.0,0.0,0.0,0.0,0.0,0.0,0.0,0.0,0.0,0.0,0.0,0.0,0.0,0.009436807595193386,-0.015861930325627327,-0.05491925776004791,0.0,0.0,0.0,0.0,0.0,0.0,0.0,0.0,0.0,0.15794873237609863,-0.09692308306694031,10.029743194580078,0.0,0.0,0.0,0.0,0.0,0.0,0.0,0.0,0.0
1646350744.3931007,6569,1646350744,392538550,,0.0,0.0,0.0,0.0,0.0,0.0,0.0,0.0,0.0,0.0,0.0,0.0,0.0,0.005175749771296978,0.00224756239913404,-0.013373949564993382,0.0,0.0,0.0,0.0,0.0,0.0,0.0,0.0,0.0,0.2297435998916626,-0.4828205108642578,9.45897388458252,0.0,0.0,0.0,0.0,0.0,0.0,0.0,0.0,0.0
1646350744.3952177,6570,1646350744,394913277,,0.0,0.0,0.0,0.0,0.0,0.0,0.0,0.0,0.0,0.0,0.0,0.0,0.0,0.012632600963115692,0.007573884446173906,-0.050658199936151505,0.0,0.0,0.0,0.0,0.0,0.0,0.0,0.0,0.0,0.1471794843673706,-0.10051282495260239,10.035127639770508,0.0,0.0,0.0,0.0,0.0,0.0,0.0,0.0,0.0
1646350744.3982515,6571,1646350744,397203184,,0.0,0.0,0.0,0.0,0.0,0.0,0.0,0.0,0.0,0.0,0.0,0.0,0.0,-0.00441163033246994,0.00224756239913404,-0.050658199936151505,0.0,0.0,0.0,0.0,0.0,0.0,0.0,0.0,0.0,0.27820512652397156,-0.33743590116500854,9.609743118286133,0.0,0.0,0.0,0.0,0.0,0.0,0.0,0.0,0.0
1646350744.3998177,6572,1646350744,399483651,,0.0,0.0,0.0,0.0,0.0,0.0,0.0,0.0,0.0,0.0,0.0,0.0,0.0,-0.007607422769069672,0.012900206260383129,-0.008047626353800297,0.0,0.0,0.0,0.0,0.0,0.0,0.0,0.0,0.0,0.028717949986457825,-0.3033333420753479,9.494871139526367,0.0,0.0,0.0,0.0,0.0,0.0,0.0,0.0,0.0
1646350744.4020722,6573,1646350744,401700097,,0.0,0.0,0.0,0.0,0.0,0.0,0.0,0.0,0.0,0.0,0.0,0.0,0.0,-0.00654215831309557,-0.0020134944934397936,-0.05598452314734459,0.0,0.0,0.0,0.0,0.0,0.0,0.0,0.0,0.0,0.13641025125980377,-0.14897435903549194,9.993846893310547,0.0,0.0,0.0,0.0,0.0,0.0,0.0,0.0,0.0
1646350744.4043403,6574,1646350744,403920274,,0.0,0.0,0.0,0.0,0.0,0.0,0.0,0.0,0.0,0.0,0.0,0.0,0.0,-0.00441163033246994,-0.003078758716583252,-0.01976553350687027,0.0,0.0,0.0,0.0,0.0,0.0,0.0,0.0,0.0,-0.07897436618804932,-0.4594871997833252,9.3889741897583,0.0,0.0,0.0,0.0,0.0,0.0,0.0,0.0,0.0
1646350744.4063833,6575,1646350744,406142133,,0.0,0.0,0.0,0.0,0.0,0.0,0.0,0.0,0.0,0.0,0.0,0.0,0.0,-0.010803216136991978,0.01822652854025364,-0.035744503140449524,0.0,0.0,0.0,0.0,0.0,0.0,0.0,0.0,0.0,-0.05025641247630119,-0.18128205835819244,9.85564136505127,0.0,0.0,0.0,0.0,0.0,0.0,0.0,0.0,0.0
1646350744.4087791,6576,1646350744,408381873,,0.0,0.0,0.0,0.0,0.0,0.0,0.0,0.0,0.0,0.0,0.0,0.0,0.0,0.001979956403374672,-0.012666137889027596,-0.04533188045024872,0.0,0.0,0.0,0.0,0.0,0.0,0.0,0.0,0.0,-0.1148717999458313,-0.46128207445144653,9.254359245300293,0.0,0.0,0.0,0.0,0.0,0.0,0.0,0.0,0.0
1646350744.4111826,6577,1646350744,410721378,,0.0,0.0,0.0,0.0,0.0,0.0,0.0,0.0,0.0,0.0,0.0,0.0,0.0,-0.002281100954860449,-0.010535608977079391,-0.004851834382861853,0.0,0.0,0.0,0.0,0.0,0.0,0.0,0.0,0.0,0.15794873237609863,-0.09692308306694031,9.521795272827148,0.0,0.0,0.0,0.0,0.0,0.0,0.0,0.0,0.0
1646350744.4135115,6578,1646350744,413074767,,0.0,0.0,0.0,0.0,0.0,0.0,0.0,0.0,0.0,0.0,0.0,0.0,0.0,-0.02997797727584839,-0.007339817471802235,-0.043201349675655365,0.0,0.0,0.0,0.0,0.0,0.0,0.0,0.0,0.0,0.26384615898132324,-0.3679487407207489,9.656410217285156,0.0,0.0,0.0,0.0,0.0,0.0,0.0,0.0,0.0
1646350744.4161704,6579,1646350744,415367341,,0.0,0.0,0.0,0.0,0.0,0.0,0.0,0.0,0.0,0.0,0.0,0.0,0.0,0.004110485315322876,0.00011703448399202898,-0.03254871070384979,0.0,0.0,0.0,0.0,0.0,0.0,0.0,0.0,0.0,0.15256410837173462,0.09871795028448105,9.498461723327637,0.0,0.0,0.0,0.0,0.0,0.0,0.0,0.0,0.0
1646350744.4180205,6580,1646350744,417603573,,0.0,0.0,0.0,0.0,0.0,0.0,0.0,0.0,0.0,0.0,0.0,0.0,0.0,-0.038500092923641205,0.004378091543912888,-0.046397142112255096,0.0,0.0,0.0,0.0,0.0,0.0,0.0,0.0,0.0,0.07897436618804932,-0.007179487496614456,9.9094877243042,0.0,0.0,0.0,0.0,0.0,0.0,0.0,0.0,0.0
1646350744.4201944,6581,1646350744,419815423,,0.0,0.0,0.0,0.0,0.0,0.0,0.0,0.0,0.0,0.0,0.0,0.0,0.0,-0.016129538416862488,-0.003078758716583252,-0.0101781552657485,0.0,0.0,0.0,0.0,0.0,0.0,0.0,0.0,0.0,-0.21358974277973175,-0.45769232511520386,9.383589744567871,0.0,0.0,0.0,0.0,0.0,0.0,0.0,0.0,0.0
1646350744.4224117,6582,1646350744,422041626,,0.0,0.0,0.0,0.0,0.0,0.0,0.0,0.0,0.0,0.0,0.0,0.0,0.0,-0.01186848059296608,0.012900206260383129,-0.04533188045024872,0.0,0.0,0.0,0.0,0.0,0.0,0.0,0.0,0.0,0.08615384995937347,-0.12205128371715546,9.981282234191895,0.0,0.0,0.0,0.0,0.0,0.0,0.0,0.0,0.0
1646350744.424629,6583,1646350744,424308314,,0.0,0.0,0.0,0.0,0.0,0.0,0.0,0.0,0.0,0.0,0.0,0.0,0.0,-0.018260065466165543,0.020357057452201843,0.018583983182907104,0.0,0.0,0.0,0.0,0.0,0.0,0.0,0.0,0.0,0.06282051652669907,-0.5348718166351318,9.356666564941406,0.0,0.0,0.0,0.0,0.0,0.0,0.0,0.0,0.0
1646350744.4269004,6584,1646350744,426553407,,0.0,0.0,0.0,0.0,0.0,0.0,0.0,0.0,0.0,0.0,0.0,0.0,0.0,0.007306278217583895,0.009704413823783398,-0.04426661506295204,0.0,0.0,0.0,0.0,0.0,0.0,0.0,0.0,0.0,0.1794871836900711,-0.15974359214305878,10.035127639770508,0.0,0.0,0.0,0.0,0.0,0.0,0.0,0.0,0.0
1646350744.4291449,6585,1646350744,428708939,,0.0,0.0,0.0,0.0,0.0,0.0,0.0,0.0,0.0,0.0,0.0,0.0,0.0,-0.018260065466165543,0.00011703448399202898,-0.029352914541959763,0.0,0.0,0.0,0.0,0.0,0.0,0.0,0.0,0.0,0.0735897421836853,-0.3858974575996399,9.73717975616455,0.0,0.0,0.0,0.0,0.0,0.0,0.0,0.0,0.0
1646350744.4312706,6586,1646350744,430930439,,0.0,0.0,0.0,0.0,0.0,0.0,0.0,0.0,0.0,0.0,0.0,0.0,0.0,-0.002281100954860449,0.01822652854025364,0.0047355457209050655,0.0,0.0,0.0,0.0,0.0,0.0,0.0,0.0,0.0,0.028717949986457825,-0.45769232511520386,9.380000114440918,0.0,0.0,0.0,0.0,0.0,0.0,0.0,0.0,0.0
1646350744.4351447,6587,1646350744,433196492,,0.0,0.0,0.0,0.0,0.0,0.0,0.0,0.0,0.0,0.0,0.0,0.0,0.0,-0.01506427489221096,0.010769677348434925,-0.026157120242714882,0.0,0.0,0.0,0.0,0.0,0.0,0.0,0.0,0.0,0.07179487496614456,-0.4146153926849365,10.035127639770508,0.0,0.0,0.0,0.0,0.0,0.0,0.0,0.0,0.0
1646350744.4357028,6588,1646350744,435429783,,0.0,0.0,0.0,0.0,0.0,0.0,0.0,0.0,0.0,0.0,0.0,0.0,0.0,-0.01186848059296608,0.016095999628305435,-0.0005907765007577837,0.0,0.0,0.0,0.0,0.0,0.0,0.0,0.0,0.0,0.2710256576538086,-0.41641026735305786,9.505640983581543,0.0,0.0,0.0,0.0,0.0,0.0,0.0,0.0,0.0
1646350744.4378817,6589,1646350744,437645349,,0.0,0.0,0.0,0.0,0.0,0.0,0.0,0.0,0.0,0.0,0.0,0.0,0.0,-0.021455859765410423,0.020357057452201843,-0.006982361897826195,0.0,0.0,0.0,0.0,0.0,0.0,0.0,0.0,0.0,0.22615385055541992,-0.18307693302631378,10.011795043945312,0.0,0.0,0.0,0.0,0.0,0.0,0.0,0.0,0.0
1646350744.440252,6590,1646350744,439908899,,0.0,0.0,0.0,0.0,0.0,0.0,0.0,0.0,0.0,0.0,0.0,0.0,0.0,-0.021455859765410423,0.017161265015602112,0.04841138795018196,0.0,0.0,0.0,0.0,0.0,0.0,0.0,0.0,0.0,0.2297435998916626,-0.6694872379302979,9.534358978271484,0.0,0.0,0.0,0.0,0.0,0.0,0.0,0.0,0.0
1646350744.4425285,6591,1646350744,442156661,,0.0,0.0,0.0,0.0,0.0,0.0,0.0,0.0,0.0,0.0,0.0,0.0,0.0,-0.018260065466165543,-0.008405081927776337,0.008996603079140186,0.0,0.0,0.0,0.0,0.0,0.0,0.0,0.0,0.0,0.17589744925498962,-0.2064102590084076,10.160768508911133,0.0,0.0,0.0,0.0,0.0,0.0,0.0,0.0,0.0
1646350744.4449568,6592,1646350744,444475609,,0.0,0.0,0.0,0.0,0.0,0.0,0.0,0.0,0.0,0.0,0.0,0.0,0.0,-0.008672687225043774,-0.0020134944934397936,0.021779777482151985,0.0,0.0,0.0,0.0,0.0,0.0,0.0,0.0,0.0,0.23333333432674408,-0.6928205490112305,9.55589771270752,0.0,0.0,0.0,0.0,0.0,0.0,0.0,0.0,0.0
1646350744.4471145,6593,1646350744,446747843,,0.0,0.0,0.0,0.0,0.0,0.0,0.0,0.0,0.0,0.0,0.0,0.0,0.0,-0.017194801941514015,-0.016927195712924004,-0.014439214020967484,0.0,0.0,0.0,0.0,0.0,0.0,0.0,0.0,0.0,0.08615384995937347,-0.6102564334869385,9.539743423461914,0.0,0.0,0.0,0.0,0.0,0.0,0.0,0.0,0.0
1646350744.4494352,6594,1646350744,449043822,,0.0,0.0,0.0,0.0,0.0,0.0,0.0,0.0,0.0,0.0,0.0,0.0,0.0,-0.028912710025906563,-0.012666137889027596,0.01112713199108839,0.0,0.0,0.0,0.0,0.0,0.0,0.0,0.0,0.0,0.023333333432674408,-0.4774359166622162,10.10692310333252,0.0,0.0,0.0,0.0,0.0,0.0,0.0,0.0,0.0
1646350744.4517925,6595,1646350744,451334040,,0.0,0.0,0.0,0.0,0.0,0.0,0.0,0.0,0.0,0.0,0.0,0.0,0.0,-0.03636956214904785,-0.009470346383750439,0.02071451209485531,0.0,0.0,0.0,0.0,0.0,0.0,0.0,0.0,0.0,0.16692309081554413,-0.6192308068275452,9.692307472229004,0.0,0.0,0.0,0.0,0.0,0.0,0.0,0.0,0.0
1646350744.453964,6596,1646350744,453540360,,0.0,0.0,0.0,0.0,0.0,0.0,0.0,0.0,0.0,0.0,0.0,0.0,0.0,-0.023586388677358627,-0.013731402345001698,0.013257660903036594,0.0,0.0,0.0,0.0,0.0,0.0,0.0,0.0,0.0,0.05564102530479431,-0.5420513153076172,9.984871864318848,0.0,0.0,0.0,0.0,0.0,0.0,0.0,0.0,0.0
1646350744.4561422,6597,1646350744,455771797,,0.0,0.0,0.0,0.0,0.0,0.0,0.0,0.0,0.0,0.0,0.0,0.0,0.0,-0.024651652202010155,0.00224756239913404,0.02710609696805477,0.0,0.0,0.0,0.0,0.0,0.0,0.0,0.0,0.0,0.19923077523708344,-0.8776923418045044,9.746153831481934,0.0,0.0,0.0,0.0,0.0,0.0,0.0,0.0,0.0
1646350744.45841,6598,1646350744,458019827,,0.0,0.0,0.0,0.0,0.0,0.0,0.0,0.0,0.0,0.0,0.0,0.0,0.0,-0.03743482753634453,-0.007339817471802235,0.00686607463285327,0.0,0.0,0.0,0.0,0.0,0.0,0.0,0.0,0.0,0.1238461583852768,-0.3212820589542389,10.018974304199219,0.0,0.0,0.0,0.0,0.0,0.0,0.0,0.0,0.0
1646350744.4608037,6599,1646350744,460335369,,0.0,0.0,0.0,0.0,0.0,0.0,0.0,0.0,0.0,0.0,0.0,0.0,0.0,-0.005476894788444042,-0.0009482299210503697,0.03562821075320244,0.0,0.0,0.0,0.0,0.0,0.0,0.0,0.0,0.0,0.044871795922517776,-0.5689743757247925,10.00820541381836,0.0,0.0,0.0,0.0,0.0,0.0,0.0,0.0,0.0
1646350744.46298,6600,1646350744,462582337,,0.0,0.0,0.0,0.0,0.0,0.0,0.0,0.0,0.0,0.0,0.0,0.0,0.0,-0.031043240800499916,-0.02118825353682041,0.0164534542709589,0.0,0.0,0.0,0.0,0.0,0.0,0.0,0.0,0.0,0.21897436678409576,-0.40743592381477356,9.769487380981445,0.0,0.0,0.0,0.0,0.0,0.0,0.0,0.0,0.0
1646350744.4651148,6601,1646350744,464832088,,0.0,0.0,0.0,0.0,0.0,0.0,0.0,0.0,0.0,0.0,0.0,0.0,0.0,-0.007607422769069672,0.001182297826744616,0.02071451209485531,0.0,0.0,0.0,0.0,0.0,0.0,0.0,0.0,0.0,0.05564102530479431,-0.6120513081550598,9.963333129882812,0.0,0.0,0.0,0.0,0.0,0.0,0.0,0.0,0.0
1646350744.4675717,6602,1646350744,467104306,,0.0,0.0,0.0,0.0,0.0,0.0,0.0,0.0,0.0,0.0,0.0,0.0,0.0,-0.03636956214904785,0.00224756239913404,0.024975569918751717,0.0,0.0,0.0,0.0,0.0,0.0,0.0,0.0,0.0,-0.1058974415063858,-1.0158973932266235,9.494871139526367,0.0,0.0,0.0,0.0,0.0,0.0,0.0,0.0,0.0
1646350744.4696836,6603,1646350744,469323147,,0.0,0.0,0.0,0.0,0.0,0.0,0.0,0.0,0.0,0.0,0.0,0.0,0.0,-0.00015057262498885393,0.00544335599988699,0.012192396447062492,0.0,0.0,0.0,0.0,0.0,0.0,0.0,0.0,0.0,-0.00897435937076807,-0.6102564334869385,10.088973999023438,0.0,0.0,0.0,0.0,0.0,0.0,0.0,0.0,0.0
1646350744.4718213,6604,1646350744,471538663,,0.0,0.0,0.0,0.0,0.0,0.0,0.0,0.0,0.0,0.0,0.0,0.0,0.0,-0.007607422769069672,-0.016927195712924004,0.02391030639410019,0.0,0.0,0.0,0.0,0.0,0.0,0.0,0.0,0.0,-0.15435898303985596,-1.024871826171875,9.471538543701172,0.0,0.0,0.0,0.0,0.0,0.0,0.0,0.0,0.0
1646350744.474006,6605,1646350744,473757154,,0.0,0.0,0.0,0.0,0.0,0.0,0.0,0.0,0.0,0.0,0.0,0.0,0.0,-0.01186848059296608,-0.012666137889027596,0.0047355457209050655,0.0,0.0,0.0,0.0,0.0,0.0,0.0,0.0,0.0,0.0825641080737114,-0.8094872236251831,9.577435493469238,0.0,0.0,0.0,0.0,0.0,0.0,0.0,0.0,0.0
1646350744.4772363,6606,1646350744,475988364,,0.0,0.0,0.0,0.0,0.0,0.0,0.0,0.0,0.0,0.0,0.0,0.0,0.0,-0.017194801941514015,0.00544335599988699,0.02710609696805477,0.0,0.0,0.0,0.0,0.0,0.0,0.0,0.0,0.0,0.09692308306694031,-0.5707692503929138,9.916666030883789,0.0,0.0,0.0,0.0,0.0,0.0,0.0,0.0,0.0
1646350744.4786704,6607,1646350744,478290427,,0.0,0.0,0.0,0.0,0.0,0.0,0.0,0.0,0.0,0.0,0.0,0.0,0.0,-0.021455859765410423,0.010769677348434925,0.021779777482151985,0.0,0.0,0.0,0.0,0.0,0.0,0.0,0.0,0.0,0.11846154183149338,-1.076923131942749,9.528974533081055,0.0,0.0,0.0,0.0,0.0,0.0,0.0,0.0,0.0
1646350744.4810638,6608,1646350744,480595911,,0.0,0.0,0.0,0.0,0.0,0.0,0.0,0.0,0.0,0.0,0.0,0.0,0.0,-0.018260065466165543,-0.007339817471802235,0.0281713604927063,0.0,0.0,0.0,0.0,0.0,0.0,0.0,0.0,0.0,0.11846154183149338,-0.6102564334869385,10.144615173339844,0.0,0.0,0.0,0.0,0.0,0.0,0.0,0.0,0.0
1646350744.483302,6609,1646350744,482865652,,0.0,0.0,0.0,0.0,0.0,0.0,0.0,0.0,0.0,0.0,0.0,0.0,0.0,-0.005476894788444042,0.004378091543912888,0.018583983182907104,0.0,0.0,0.0,0.0,0.0,0.0,0.0,0.0,0.0,0.09692308306694031,-0.8579487204551697,10.018974304199219,0.0,0.0,0.0,0.0,0.0,0.0,0.0,0.0,0.0
1646350744.4855416,6610,1646350744,485156893,,0.0,0.0,0.0,0.0,0.0,0.0,0.0,0.0,0.0,0.0,0.0,0.0,0.0,-0.01186848059296608,-0.008405081927776337,-0.012308684177696705,0.0,0.0,0.0,0.0,0.0,0.0,0.0,0.0,0.0,0.1741025745868683,-0.962051272392273,9.55051326751709,0.0,0.0,0.0,0.0,0.0,0.0,0.0,0.0,0.0
1646350744.4877014,6611,1646350744,487357117,,0.0,0.0,0.0,0.0,0.0,0.0,0.0,0.0,0.0,0.0,0.0,0.0,0.0,-0.003346365410834551,-0.020122988149523735,0.013257660903036594,0.0,0.0,0.0,0.0,0.0,0.0,0.0,0.0,0.0,0.2153846174478531,-0.8938461542129517,9.89871883392334,0.0,0.0,0.0,0.0,0.0,0.0,0.0,0.0,0.0
1646350744.4897711,6612,1646350744,489548348,,0.0,0.0,0.0,0.0,0.0,0.0,0.0,0.0,0.0,0.0,0.0,0.0,0.0,-0.01186848059296608,0.011834941804409027,0.0164534542709589,0.0,0.0,0.0,0.0,0.0,0.0,0.0,0.0,0.0,0.13461539149284363,-0.8758974671363831,9.55589771270752,0.0,0.0,0.0,0.0,0.0,0.0,0.0,0.0,0.0
1646350744.4921474,6613,1646350744,491783817,,0.0,0.0,0.0,0.0,0.0,0.0,0.0,0.0,0.0,0.0,0.0,0.0,0.0,0.01156733650714159,0.00224756239913404,-0.015504478476941586,0.0,0.0,0.0,0.0,0.0,0.0,0.0,0.0,0.0,0.13641025125980377,-0.962051272392273,9.866410255432129,0.0,0.0,0.0,0.0,0.0,0.0,0.0,0.0,0.0
1646350744.4943602,6614,1646350744,493992163,,0.0,0.0,0.0,0.0,0.0,0.0,0.0,0.0,0.0,0.0,0.0,0.0,0.0,-0.013999010436236858,0.015030735172331333,0.0058008101768791676,0.0,0.0,0.0,0.0,0.0,0.0,0.0,0.0,0.0,0.1328205168247223,-1.1828205585479736,9.455384254455566,0.0,0.0,0.0,0.0,0.0,0.0,0.0,0.0,0.0
1646350744.49653,6615,1646350744,496185216,,0.0,0.0,0.0,0.0,0.0,0.0,0.0,0.0,0.0,0.0,0.0,0.0,0.0,0.029676830396056175,-0.012666137889027596,-0.0016560404328629375,0.0,0.0,0.0,0.0,0.0,0.0,0.0,0.0,0.0,0.0735897421836853,-0.7448717951774597,10.09076976776123,0.0,0.0,0.0,0.0,0.0,0.0,0.0,0.0,0.0
1646350744.4986644,6616,1646350744,498427499,,0.0,0.0,0.0,0.0,0.0,0.0,0.0,0.0,0.0,0.0,0.0,0.0,0.0,-0.00015057262498885393,-0.005209287628531456,0.0026050168089568615,0.0,0.0,0.0,0.0,0.0,0.0,0.0,0.0,0.0,0.05384615436196327,-1.1541025638580322,9.390769004821777,0.0,0.0,0.0,0.0,0.0,0.0,0.0,0.0,0.0
1646350744.500994,6617,1646350744,500634721,,0.0,0.0,0.0,0.0,0.0,0.0,0.0,0.0,0.0,0.0,0.0,0.0,0.0,0.0286115650087595,-0.012666137889027596,-0.0101781552657485,0.0,0.0,0.0,0.0,0.0,0.0,0.0,0.0,0.0,0.3212820589542389,-0.6982051730155945,9.749743461608887,0.0,0.0,0.0,0.0,0.0,0.0,0.0,0.0,0.0
1646350744.5032535,6618,1646350744,502838352,,0.0,0.0,0.0,0.0,0.0,0.0,0.0,0.0,0.0,0.0,0.0,0.0,0.0,0.017958922311663628,-0.007339817471802235,-0.009112890809774399,0.0,0.0,0.0,0.0,0.0,0.0,0.0,0.0,0.0,0.27282050251960754,-1.281538486480713,9.523589134216309,0.0,0.0,0.0,0.0,0.0,0.0,0.0,0.0,0.0
1646350744.5054562,6619,1646350744,505133366,,0.0,0.0,0.0,0.0,0.0,0.0,0.0,0.0,0.0,0.0,0.0,0.0,0.0,0.025415774434804916,0.012900206260383129,-0.0016560404328629375,0.0,0.0,0.0,0.0,0.0,0.0,0.0,0.0,0.0,-0.3033333420753479,-1.2582051753997803,9.380000114440918,0.0,0.0,0.0,0.0,0.0,0.0,0.0,0.0,0.0
1646350744.5077164,6620,1646350744,507384687,,0.0,0.0,0.0,0.0,0.0,0.0,0.0,0.0,0.0,0.0,0.0,0.0,0.0,0.03606841340661049,-0.013731402345001698,-0.012308684177696705,0.0,0.0,0.0,0.0,0.0,0.0,0.0,0.0,0.0,0.001794871874153614,-0.8615384697914124,10.026153564453125,0.0,0.0,0.0,0.0,0.0,0.0,0.0,0.0,0.0
1646350744.5099773,6621,1646350744,509645039,,0.0,0.0,0.0,0.0,0.0,0.0,0.0,0.0,0.0,0.0,0.0,0.0,0.0,0.0286115650087595,0.00224756239913404,0.00686607463285327,0.0,0.0,0.0,0.0,0.0,0.0,0.0,0.0,0.0,-0.07717949151992798,-1.1397435665130615,9.270512580871582,0.0,0.0,0.0,0.0,0.0,0.0,0.0,0.0,0.0
1646350744.512226,6622,1646350744,511930031,,0.0,0.0,0.0,0.0,0.0,0.0,0.0,0.0,0.0,0.0,0.0,0.0,0.0,0.02435050904750824,-0.008405081927776337,-0.006982361897826195,0.0,0.0,0.0,0.0,0.0,0.0,0.0,0.0,0.0,0.016153845936059952,-0.8615384697914124,9.697691917419434,0.0,0.0,0.0,0.0,0.0,0.0,0.0,0.0,0.0
1646350744.514483,6623,1646350744,514164284,,0.0,0.0,0.0,0.0,0.0,0.0,0.0,0.0,0.0,0.0,0.0,0.0,0.0,0.0680263489484787,-0.0009482299210503697,-0.0016560404328629375,0.0,0.0,0.0,0.0,0.0,0.0,0.0,0.0,0.0,0.2387179583311081,-1.0123077630996704,9.728204727172852,0.0,0.0,0.0,0.0,0.0,0.0,0.0,0.0,0.0
1646350744.5166998,6624,1646350744,516372136,,0.0,0.0,0.0,0.0,0.0,0.0,0.0,0.0,0.0,0.0,0.0,0.0,0.0,0.04885159060359001,0.00011703448399202898,-0.013373949564993382,0.0,0.0,0.0,0.0,0.0,0.0,0.0,0.0,0.0,0.21000000834465027,-0.7358974814414978,9.647436141967773,0.0,0.0,0.0,0.0,0.0,0.0,0.0,0.0,0.0
1646350744.5200906,6625,1646350744,518632721,,0.0,0.0,0.0,0.0,0.0,0.0,0.0,0.0,0.0,0.0,0.0,0.0,0.0,0.0680263489484787,-0.008405081927776337,-0.009112890809774399,0.0,0.0,0.0,0.0,0.0,0.0,0.0,0.0,0.0,0.17230769991874695,-1.1594871282577515,9.527179718017578,0.0,0.0,0.0,0.0,0.0,0.0,0.0,0.0,0.0
1646350744.5212128,6626,1646350744,520869538,,0.0,0.0,0.0,0.0,0.0,0.0,0.0,0.0,0.0,0.0,0.0,0.0,0.0,0.08080952614545822,0.00544335599988699,-0.008047626353800297,0.0,0.0,0.0,0.0,0.0,0.0,0.0,0.0,0.0,0.16692309081554413,-0.7376923561096191,9.947179794311523,0.0,0.0,0.0,0.0,0.0,0.0,0.0,0.0,0.0
1646350744.5237205,6627,1646350744,523164431,,0.0,0.0,0.0,0.0,0.0,0.0,0.0,0.0,0.0,0.0,0.0,0.0,0.0,0.06909161061048508,-0.020122988149523735,-0.020830798894166946,0.0,0.0,0.0,0.0,0.0,0.0,0.0,0.0,0.0,-0.07538461685180664,-0.6946154236793518,9.800000190734863,0.0,0.0,0.0,0.0,0.0,0.0,0.0,0.0,0.0
1646350744.5258894,6628,1646350744,525403294,,0.0,0.0,0.0,0.0,0.0,0.0,0.0,0.0,0.0,0.0,0.0,0.0,0.0,0.12555061280727386,0.008639149367809296,0.007931338623166084,0.0,0.0,0.0,0.0,0.0,0.0,0.0,0.0,0.0,-0.22256410121917725,-1.0643589496612549,9.340513229370117,0.0,0.0,0.0,0.0,0.0,0.0,0.0,0.0,0.0
1646350744.5280483,6629,1646350744,527629352,,0.0,0.0,0.0,0.0,0.0,0.0,0.0,0.0,0.0,0.0,0.0,0.0,0.0,0.119159035384655,-0.009470346383750439,-0.026157120242714882,0.0,0.0,0.0,0.0,0.0,0.0,0.0,0.0,0.0,0.16153846681118011,-0.6784615516662598,9.722820281982422,0.0,0.0,0.0,0.0,0.0,0.0,0.0,0.0,0.0
1646350744.5303862,6630,1646350744,529980728,,0.0,0.0,0.0,0.0,0.0,0.0,0.0,0.0,0.0,0.0,0.0,0.0,0.0,0.13407273590564728,0.015030735172331333,-0.016569742932915688,0.0,0.0,0.0,0.0,0.0,0.0,0.0,0.0,0.0,0.08615384995937347,-1.0517948865890503,9.311795234680176,0.0,0.0,0.0,0.0,0.0,0.0,0.0,0.0,0.0
1646350744.5325878,6631,1646350744,532242685,,0.0,0.0,0.0,0.0,0.0,0.0,0.0,0.0,0.0,0.0,0.0,0.0,0.0,0.1788138598203659,0.004378091543912888,-0.017635004594922066,0.0,0.0,0.0,0.0,0.0,0.0,0.0,0.0,0.0,0.15076923370361328,-0.5151281952857971,9.647436141967773,0.0,0.0,0.0,0.0,0.0,0.0,0.0,0.0,0.0
1646350744.5349379,6632,1646350744,534504199,,0.0,0.0,0.0,0.0,0.0,0.0,0.0,0.0,0.0,0.0,0.0,0.0,0.0,0.2022496610879898,0.003312827320769429,-0.018700269982218742,0.0,0.0,0.0,0.0,0.0,0.0,0.0,0.0,0.0,0.0735897421836853,-0.6479487419128418,9.717435836791992,0.0,0.0,0.0,0.0,0.0,0.0,0.0,0.0,0.0
1646350744.5368905,6633,1646350744,536685616,,0.0,0.0,0.0,0.0,0.0,0.0,0.0,0.0,0.0,0.0,0.0,0.0,0.0,0.2160980999469757,0.00011703448399202898,-0.01976553350687027,0.0,0.0,0.0,0.0,0.0,0.0,0.0,0.0,0.0,0.0825641080737114,-0.7735897898674011,9.45358943939209,0.0,0.0,0.0,0.0,0.0,0.0,0.0,0.0,0.0
1646350744.5392973,6634,1646350744,538918686,,0.0,0.0,0.0,0.0,0.0,0.0,0.0,0.0,0.0,0.0,0.0,0.0,0.0,0.24699077010154724,-0.0009482299210503697,-0.021896062418818474,0.0,0.0,0.0,0.0,0.0,0.0,0.0,0.0,0.0,0.13641025125980377,-0.6174359321594238,9.64384651184082,0.0,0.0,0.0,0.0,0.0,0.0,0.0,0.0,0.0
1646350744.541609,6635,1646350744,541182670,,0.0,0.0,0.0,0.0,0.0,0.0,0.0,0.0,0.0,0.0,0.0,0.0,0.0,0.2778834402561188,0.011834941804409027,-0.0037865692283958197,0.0,0.0,0.0,0.0,0.0,0.0,0.0,0.0,0.0,0.2620512843132019,-0.8974359035491943,9.331538200378418,0.0,0.0,0.0,0.0,0.0,0.0,0.0,0.0,0.0
1646350744.543937,6636,1646350744,543456722,,0.0,0.0,0.0,0.0,0.0,0.0,0.0,0.0,0.0,0.0,0.0,0.0,0.0,0.29173189401626587,0.012900206260383129,-0.006982361897826195,0.0,0.0,0.0,0.0,0.0,0.0,0.0,0.0,0.0,0.05384615436196327,-0.3912820518016815,10.115897178649902,0.0,0.0,0.0,0.0,0.0,0.0,0.0,0.0,0.0
1646350744.5461028,6637,1646350744,545667572,,0.0,0.0,0.0,0.0,0.0,0.0,0.0,0.0,0.0,0.0,0.0,0.0,0.0,0.30664560198783875,-0.013731402345001698,-0.005917098838835955,0.0,0.0,0.0,0.0,0.0,0.0,0.0,0.0,0.0,0.1974359005689621,-0.7915384769439697,9.326153755187988,0.0,0.0,0.0,0.0,0.0,0.0,0.0,0.0,0.0
1646350744.5482645,6638,1646350744,547987158,,0.0,0.0,0.0,0.0,0.0,0.0,0.0,0.0,0.0,0.0,0.0,0.0,0.0,0.31623297929763794,-0.010535608977079391,-0.012308684177696705,0.0,0.0,0.0,0.0,0.0,0.0,0.0,0.0,0.0,0.05205128341913223,-0.4056410491466522,9.907692909240723,0.0,0.0,0.0,0.0,0.0,0.0,0.0,0.0,0.0
1646350744.5506353,6639,1646350744,550209668,,0.0,0.0,0.0,0.0,0.0,0.0,0.0,0.0,0.0,0.0,0.0,0.0,0.0,0.35245195031166077,-0.015861930325627327,-0.020830798894166946,0.0,0.0,0.0,0.0,0.0,0.0,0.0,0.0,0.0,0.007179487496614456,-0.49000000953674316,9.778461456298828,0.0,0.0,0.0,0.0,0.0,0.0,0.0,0.0,0.0
1646350744.5528173,6640,1646350744,552410826,,0.0,0.0,0.0,0.0,0.0,0.0,0.0,0.0,0.0,0.0,0.0,0.0,0.0,0.37162667512893677,-0.007339817471802235,-0.008047626353800297,0.0,0.0,0.0,0.0,0.0,0.0,0.0,0.0,0.0,0.2656410336494446,-0.4684615433216095,9.68871784210205,0.0,0.0,0.0,0.0,0.0,0.0,0.0,0.0,0.0
1646350744.555045,6641,1646350744,554653295,,0.0,0.0,0.0,0.0,0.0,0.0,0.0,0.0,0.0,0.0,0.0,0.0,0.0,0.3918667137622833,-0.003078758716583252,-0.008047626353800297,0.0,0.0,0.0,0.0,0.0,0.0,0.0,0.0,0.0,0.05205128341913223,-0.3212820589542389,9.721025466918945,0.0,0.0,0.0,0.0,0.0,0.0,0.0,0.0,0.0
1646350744.5584402,6642,1646350744,556875606,,0.0,0.0,0.0,0.0,0.0,0.0,0.0,0.0,0.0,0.0,0.0,0.0,0.0,0.3897361755371094,-0.015861930325627327,-0.018700269982218742,0.0,0.0,0.0,0.0,0.0,0.0,0.0,0.0,0.0,0.09692308306694031,-0.49897435307502747,8.911539077758789,0.0,0.0,0.0,0.0,0.0,0.0,0.0,0.0,0.0
1646350744.5594318,6643,1646350744,559101884,,0.0,0.0,0.0,0.0,0.0,0.0,0.0,0.0,0.0,0.0,0.0,0.0,0.0,0.42382463812828064,-0.013731402345001698,-0.009112890809774399,0.0,0.0,0.0,0.0,0.0,0.0,0.0,0.0,0.0,-0.2441025674343109,-0.36974361538887024,10.155384063720703,0.0,0.0,0.0,0.0,0.0,0.0,0.0,0.0,0.0
1646350744.5630229,6644,1646350744,561313698,,0.0,0.0,0.0,0.0,0.0,0.0,0.0,0.0,0.0,0.0,0.0,0.0,0.0,0.43128150701522827,-0.013731402345001698,-0.021896062418818474,0.0,0.0,0.0,0.0,0.0,0.0,0.0,0.0,0.0,-0.1561538577079773,-0.5582051277160645,9.371026039123535,0.0,0.0,0.0,0.0,0.0,0.0,0.0,0.0,0.0
1646350744.5638602,6645,1646350744,563536291,,0.0,0.0,0.0,0.0,0.0,0.0,0.0,0.0,0.0,0.0,0.0,0.0,0.0,0.43234676122665405,-0.026514576748013496,-0.026157120242714882,0.0,0.0,0.0,0.0,0.0,0.0,0.0,0.0,0.0,0.025128206238150597,-0.32846155762672424,9.981282234191895,0.0,0.0,0.0,0.0,0.0,0.0,0.0,0.0,0.0
1646350744.5661013,6646,1646350744,565800690,,0.0,0.0,0.0,0.0,0.0,0.0,0.0,0.0,0.0,0.0,0.0,0.0,0.0,0.47069627046585083,-0.03184089809656143,-0.050658199936151505,0.0,0.0,0.0,0.0,0.0,0.0,0.0,0.0,0.0,0.44333335757255554,-0.4056410491466522,9.309999465942383,0.0,0.0,0.0,0.0,0.0,0.0,0.0,0.0,0.0
1646350744.568371,6647,1646350744,568025534,,0.0,0.0,0.0,0.0,0.0,0.0,0.0,0.0,0.0,0.0,0.0,0.0,0.0,0.4760226011276245,-0.02225351706147194,-0.0016560404328629375,0.0,0.0,0.0,0.0,0.0,0.0,0.0,0.0,0.0,0.2207692414522171,-0.09153846651315689,9.636667251586914,0.0,0.0,0.0,0.0,0.0,0.0,0.0,0.0,0.0
1646350744.5707011,6648,1646350744,570344706,,0.0,0.0,0.0,0.0,0.0,0.0,0.0,0.0,0.0,0.0,0.0,0.0,0.0,0.47069627046585083,-0.041428275406360626,-0.03467923775315285,0.0,0.0,0.0,0.0,0.0,0.0,0.0,0.0,0.0,-0.05743589997291565,-0.26923078298568726,9.661794662475586,0.0,0.0,0.0,0.0,0.0,0.0,0.0,0.0,0.0
1646350744.5728443,6649,1646350744,572522483,,0.0,0.0,0.0,0.0,0.0,0.0,0.0,0.0,0.0,0.0,0.0,0.0,0.0,0.5207636952400208,0.006508619990199804,-0.008047626353800297,0.0,0.0,0.0,0.0,0.0,0.0,0.0,0.0,0.0,-0.33384618163108826,-0.6084615588188171,9.236410140991211,0.0,0.0,0.0,0.0,0.0,0.0,0.0,0.0,0.0
1646350744.5750167,6650,1646350744,574728093,,0.0,0.0,0.0,0.0,0.0,0.0,0.0,0.0,0.0,0.0,0.0,0.0,0.0,0.4994584321975708,-0.006274553015828133,-0.020830798894166946,0.0,0.0,0.0,0.0,0.0,0.0,0.0,0.0,0.0,-0.3266666829586029,-0.4558974504470825,9.805384635925293,0.0,0.0,0.0,0.0,0.0,0.0,0.0,0.0,0.0
1646350744.5773828,6651,1646350744,577011793,,0.0,0.0,0.0,0.0,0.0,0.0,0.0,0.0,0.0,0.0,0.0,0.0,0.0,0.5143721103668213,-0.02544931322336197,-0.03361397236585617,0.0,0.0,0.0,0.0,0.0,0.0,0.0,0.0,0.0,-0.1705128252506256,-0.3858974575996399,9.437435150146484,0.0,0.0,0.0,0.0,0.0,0.0,0.0,0.0,0.0
1646350744.5797946,6652,1646350744,579294845,,0.0,0.0,0.0,0.0,0.0,0.0,0.0,0.0,0.0,0.0,0.0,0.0,0.0,0.5495258569717407,-0.04036301001906395,-0.057049788534641266,0.0,0.0,0.0,0.0,0.0,0.0,0.0,0.0,0.0,-0.10051282495260239,-0.2710256576538086,9.735384941101074,0.0,0.0,0.0,0.0,0.0,0.0,0.0,0.0,0.0
1646350744.5820003,6653,1646350744,581534588,,0.0,0.0,0.0,0.0,0.0,0.0,0.0,0.0,0.0,0.0,0.0,0.0,0.0,0.5420690178871155,-0.026514576748013496,-0.040005557239055634,0.0,0.0,0.0,0.0,0.0,0.0,0.0,0.0,0.0,0.12025640904903412,-0.5994871854782104,9.372819900512695,0.0,0.0,0.0,0.0,0.0,0.0,0.0,0.0,0.0
1646350744.5842814,6654,1646350744,583771346,,0.0,0.0,0.0,0.0,0.0,0.0,0.0,0.0,0.0,0.0,0.0,0.0,0.0,0.5388731956481934,-0.03184089809656143,-0.02722238563001156,0.0,0.0,0.0,0.0,0.0,0.0,0.0,0.0,0.0,0.00897435937076807,-0.026923077180981636,9.880769729614258,0.0,0.0,0.0,0.0,0.0,0.0,0.0,0.0,0.0
1646350744.586446,6655,1646350744,585993283,,0.0,0.0,0.0,0.0,0.0,0.0,0.0,0.0,0.0,0.0,0.0,0.0,0.0,0.5974627733230591,-0.026514576748013496,-0.04533188045024872,0.0,0.0,0.0,0.0,0.0,0.0,0.0,0.0,0.0,-0.1705128252506256,-0.5923076868057251,9.250768661499023,0.0,0.0,0.0,0.0,0.0,0.0,0.0,0.0,0.0
1646350744.588648,6656,1646350744,588224334,,0.0,0.0,0.0,0.0,0.0,0.0,0.0,0.0,0.0,0.0,0.0,0.0,0.0,0.565504789352417,-0.012666137889027596,-0.050658199936151505,0.0,0.0,0.0,0.0,0.0,0.0,0.0,0.0,0.0,-0.19923077523708344,-0.28717949986457825,9.823333740234375,0.0,0.0,0.0,0.0,0.0,0.0,0.0,0.0,0.0
1646350744.590853,6657,1646350744,590502537,,0.0,0.0,0.0,0.0,0.0,0.0,0.0,0.0,0.0,0.0,0.0,0.0,0.0,0.5782879590988159,-0.02118825353682041,-0.06663717329502106,0.0,0.0,0.0,0.0,0.0,0.0,0.0,0.0,0.0,-0.0412820540368557,-0.2620512843132019,9.726409912109375,0.0,0.0,0.0,0.0,0.0,0.0,0.0,0.0,0.0
1646350744.5931213,6658,1646350744,592756647,,0.0,0.0,0.0,0.0,0.0,0.0,0.0,0.0,0.0,0.0,0.0,0.0,0.0,0.6049196124076843,-0.030775634571909904,-0.04746240749955177,0.0,0.0,0.0,0.0,0.0,0.0,0.0,0.0,0.0,-0.07538461685180664,-0.34641027450561523,9.773077011108398,0.0,0.0,0.0,0.0,0.0,0.0,0.0,0.0,0.0
1646350744.5955431,6659,1646350744,594971723,,0.0,0.0,0.0,0.0,0.0,0.0,0.0,0.0,0.0,0.0,0.0,0.0,0.0,0.6219638586044312,-0.02544931322336197,-0.08261613547801971,0.0,0.0,0.0,0.0,0.0,0.0,0.0,0.0,0.0,0.2153846174478531,-0.026923077180981636,9.767691612243652,0.0,0.0,0.0,0.0,0.0,0.0,0.0,0.0,0.0
1646350744.59761,6660,1646350744,597181950,,0.0,0.0,0.0,0.0,0.0,0.0,0.0,0.0,0.0,0.0,0.0,0.0,0.0,0.6166375279426575,-0.030775634571909904,-0.04852767288684845,0.0,0.0,0.0,0.0,0.0,0.0,0.0,0.0,0.0,-0.1471794843673706,-0.36974361538887024,10.038718223571777,0.0,0.0,0.0,0.0,0.0,0.0,0.0,0.0,0.0
1646350744.5998526,6661,1646350744,599418506,,0.0,0.0,0.0,0.0,0.0,0.0,0.0,0.0,0.0,0.0,0.0,0.0,0.0,0.6059848666191101,-0.030775634571909904,-0.07196348905563354,0.0,0.0,0.0,0.0,0.0,0.0,0.0,0.0,0.0,-0.17230769991874695,-0.3823077082633972,9.559487342834473,0.0,0.0,0.0,0.0,0.0,0.0,0.0,0.0,0.0
1646350744.602456,6662,1646350744,601657984,,0.0,0.0,0.0,0.0,0.0,0.0,0.0,0.0,0.0,0.0,0.0,0.0,0.0,0.6368775367736816,-0.0147966668009758,-0.08368139714002609,0.0,0.0,0.0,0.0,0.0,0.0,0.0,0.0,0.0,-0.11846154183149338,-0.14179487526416779,10.038718223571777,0.0,0.0,0.0,0.0,0.0,0.0,0.0,0.0,0.0
1646350744.6052322,6663,1646350744,603919425,,0.0,0.0,0.0,0.0,0.0,0.0,0.0,0.0,0.0,0.0,0.0,0.0,0.0,0.6443343758583069,-0.0009482299210503697,-0.060245580971241,0.0,0.0,0.0,0.0,0.0,0.0,0.0,0.0,0.0,0.05025641247630119,0.05384615436196327,9.419486999511719,0.0,0.0,0.0,0.0,0.0,0.0,0.0,0.0,0.0
1646350744.6065013,6664,1646350744,606130128,,0.0,0.0,0.0,0.0,0.0,0.0,0.0,0.0,0.0,0.0,0.0,0.0,0.0,0.6347470283508301,0.007573884446173906,-0.0645066350698471,0.0,0.0,0.0,0.0,0.0,0.0,0.0,0.0,0.0,0.09871795028448105,-0.14897435903549194,10.234358787536621,0.0,0.0,0.0,0.0,0.0,0.0,0.0,0.0,0.0
1646350744.608809,6665,1646350744,608336825,,0.0,0.0,0.0,0.0,0.0,0.0,0.0,0.0,0.0,0.0,0.0,0.0,0.0,0.6517912149429321,-0.007339817471802235,-0.07622455060482025,0.0,0.0,0.0,0.0,0.0,0.0,0.0,0.0,0.0,0.36076924204826355,-0.06641025841236115,9.292051315307617,0.0,0.0,0.0,0.0,0.0,0.0,0.0,0.0,0.0
1646350744.6110106,6666,1646350744,610595918,,0.0,0.0,0.0,0.0,0.0,0.0,0.0,0.0,0.0,0.0,0.0,0.0,0.0,0.6507259607315063,-0.013731402345001698,-0.09326878190040588,0.0,0.0,0.0,0.0,0.0,0.0,0.0,0.0,0.0,0.19025641679763794,0.23333333432674408,10.119487762451172,0.0,0.0,0.0,0.0,0.0,0.0,0.0,0.0,0.0
1646350744.613216,6667,1646350744,612814938,,0.0,0.0,0.0,0.0,0.0,0.0,0.0,0.0,0.0,0.0,0.0,0.0,0.0,0.664574384689331,0.006508619990199804,-0.07515928149223328,0.0,0.0,0.0,0.0,0.0,0.0,0.0,0.0,0.0,-0.1382051259279251,-0.2297435998916626,9.218461990356445,0.0,0.0,0.0,0.0,0.0,0.0,0.0,0.0,0.0
1646350744.6156542,6668,1646350744,615065586,,0.0,0.0,0.0,0.0,0.0,0.0,0.0,0.0,0.0,0.0,0.0,0.0,0.0,0.668835461139679,0.001182297826744616,-0.1017908900976181,0.0,0.0,0.0,0.0,0.0,0.0,0.0,0.0,0.0,0.17769230902194977,0.1238461583852768,10.273845672607422,0.0,0.0,0.0,0.0,0.0,0.0,0.0,0.0,0.0
1646350744.617804,6669,1646350744,617291844,,0.0,0.0,0.0,0.0,0.0,0.0,0.0,0.0,0.0,0.0,0.0,0.0,0.0,0.6805533766746521,-0.0020134944934397936,-0.08474666625261307,0.0,0.0,0.0,0.0,0.0,0.0,0.0,0.0,0.0,0.39666667580604553,-0.40743592381477356,9.29564094543457,0.0,0.0,0.0,0.0,0.0,0.0,0.0,0.0,0.0
1646350744.6200519,6670,1646350744,619605276,,0.0,0.0,0.0,0.0,0.0,0.0,0.0,0.0,0.0,0.0,0.0,0.0,0.0,0.6336817145347595,0.010769677348434925,-0.07302875071763992,0.0,0.0,0.0,0.0,0.0,0.0,0.0,0.0,0.0,0.26384615898132324,-0.1651282161474228,9.796409606933594,0.0,0.0,0.0,0.0,0.0,0.0,0.0,0.0,0.0
1646350744.6222837,6671,1646350744,621829682,,0.0,0.0,0.0,0.0,0.0,0.0,0.0,0.0,0.0,0.0,0.0,0.0,0.0,0.6603133678436279,0.010769677348434925,-0.08687718957662582,0.0,0.0,0.0,0.0,0.0,0.0,0.0,0.0,0.0,0.1884615421295166,0.07897436618804932,9.372819900512695,0.0,0.0,0.0,0.0,0.0,0.0,0.0,0.0,0.0
1646350744.6246028,6672,1646350744,624112090,,0.0,0.0,0.0,0.0,0.0,0.0,0.0,0.0,0.0,0.0,0.0,0.0,0.0,0.6347470283508301,-0.0147966668009758,-0.08581192791461945,0.0,0.0,0.0,0.0,0.0,0.0,0.0,0.0,0.0,0.001794871874153614,-0.18128205835819244,9.584615707397461,0.0,0.0,0.0,0.0,0.0,0.0,0.0,0.0,0.0
1646350744.6267288,6673,1646350744,626344109,,0.0,0.0,0.0,0.0,0.0,0.0,0.0,0.0,0.0,0.0,0.0,0.0,0.0,0.6262248754501343,0.001182297826744616,-0.11031300574541092,0.0,0.0,0.0,0.0,0.0,0.0,0.0,0.0,0.0,0.16333334147930145,-0.1148717999458313,9.625897407531738,0.0,0.0,0.0,0.0,0.0,0.0,0.0,0.0,0.0
1646350744.6288998,6674,1646350744,628564837,,0.0,0.0,0.0,0.0,0.0,0.0,0.0,0.0,0.0,0.0,0.0,0.0,0.0,0.6485954523086548,-0.003078758716583252,-0.11670459806919098,0.0,0.0,0.0,0.0,0.0,0.0,0.0,0.0,0.0,0.24051281809806824,-0.10051282495260239,9.04974365234375,0.0,0.0,0.0,0.0,0.0,0.0,0.0,0.0,0.0
1646350744.6312656,6675,1646350744,630825451,,0.0,0.0,0.0,0.0,0.0,0.0,0.0,0.0,0.0,0.0,0.0,0.0,0.0,0.602789044380188,-0.010535608977079391,-0.09007298201322556,0.0,0.0,0.0,0.0,0.0,0.0,0.0,0.0,0.0,0.4307692348957062,0.34641027450561523,10.027949333190918,0.0,0.0,0.0,0.0,0.0,0.0,0.0,0.0,0.0
1646350744.6334233,6676,1646350744,633072837,,0.0,0.0,0.0,0.0,0.0,0.0,0.0,0.0,0.0,0.0,0.0,0.0,0.0,0.5889406204223633,-0.0009482299210503697,-0.10605195164680481,0.0,0.0,0.0,0.0,0.0,0.0,0.0,0.0,0.0,0.47564104199409485,-0.016153845936059952,9.177179336547852,0.0,0.0,0.0,0.0,0.0,0.0,0.0,0.0,0.0
1646350744.6356947,6677,1646350744,635288941,,0.0,0.0,0.0,0.0,0.0,0.0,0.0,0.0,0.0,0.0,0.0,0.0,0.0,0.6304859519004822,-0.008405081927776337,-0.09539930522441864,0.0,0.0,0.0,0.0,0.0,0.0,0.0,0.0,0.0,0.3733333349227905,0.3266666829586029,9.64384651184082,0.0,0.0,0.0,0.0,0.0,0.0,0.0,0.0,0.0
1646350744.6379316,6678,1646350744,637521498,,0.0,0.0,0.0,0.0,0.0,0.0,0.0,0.0,0.0,0.0,0.0,0.0,0.0,0.5868101119995117,0.00011703448399202898,-0.10498668998479843,0.0,0.0,0.0,0.0,0.0,0.0,0.0,0.0,0.0,0.47564104199409485,0.032307691872119904,9.615128517150879,0.0,0.0,0.0,0.0,0.0,0.0,0.0,0.0,0.0
1646350744.640186,6679,1646350744,639815118,,0.0,0.0,0.0,0.0,0.0,0.0,0.0,0.0,0.0,0.0,0.0,0.0,0.0,0.5718963742256165,-0.02225351706147194,-0.08368139714002609,0.0,0.0,0.0,0.0,0.0,0.0,0.0,0.0,0.0,0.2441025674343109,0.14179487526416779,9.721025466918945,0.0,0.0,0.0,0.0,0.0,0.0,0.0,0.0,0.0
1646350744.642602,6680,1646350744,642022444,,0.0,0.0,0.0,0.0,0.0,0.0,0.0,0.0,0.0,0.0,0.0,0.0,0.0,0.5953322052955627,0.009704413823783398,-0.09966036677360535,0.0,0.0,0.0,0.0,0.0,0.0,0.0,0.0,0.0,-0.007179487496614456,0.2530769407749176,9.634871482849121,0.0,0.0,0.0,0.0,0.0,0.0,0.0,0.0,0.0
1646350744.6447403,6681,1646350744,644277365,,0.0,0.0,0.0,0.0,0.0,0.0,0.0,0.0,0.0,0.0,0.0,0.0,0.0,0.5687006115913391,-0.007339817471802235,-0.08687718957662582,0.0,0.0,0.0,0.0,0.0,0.0,0.0,0.0,0.0,0.1741025745868683,0.016153845936059952,9.620512962341309,0.0,0.0,0.0,0.0,0.0,0.0,0.0,0.0,0.0
1646350744.6487134,6682,1646350744,646637809,,0.0,0.0,0.0,0.0,0.0,0.0,0.0,0.0,0.0,0.0,0.0,0.0,0.0,0.5750921964645386,0.012900206260383129,-0.09220351278781891,0.0,0.0,0.0,0.0,0.0,0.0,0.0,0.0,0.0,0.28358975052833557,0.2943589687347412,9.489486694335938,0.0,0.0,0.0,0.0,0.0,0.0,0.0,0.0,0.0
1646350744.6499176,6683,1646350744,649097263,,0.0,0.0,0.0,0.0,0.0,0.0,0.0,0.0,0.0,0.0,0.0,0.0,0.0,0.5857448577880859,-0.005209287628531456,-0.10605195164680481,0.0,0.0,0.0,0.0,0.0,0.0,0.0,0.0,0.0,0.3733333349227905,0.12025640904903412,9.661794662475586,0.0,0.0,0.0,0.0,0.0,0.0,0.0,0.0,0.0
1646350744.6516914,6684,1646350744,651327251,,0.0,0.0,0.0,0.0,0.0,0.0,0.0,0.0,0.0,0.0,0.0,0.0,0.0,0.5740269422531128,0.015030735172331333,-0.10285615921020508,0.0,0.0,0.0,0.0,0.0,0.0,0.0,0.0,0.0,0.3141025900840759,0.25487178564071655,9.69948673248291,0.0,0.0,0.0,0.0,0.0,0.0,0.0,0.0,0.0
1646350744.6539829,6685,1646350744,653522861,,0.0,0.0,0.0,0.0,0.0,0.0,0.0,0.0,0.0,0.0,0.0,0.0,0.0,0.5708311200141907,0.027813909575343132,-0.07089822739362717,0.0,0.0,0.0,0.0,0.0,0.0,0.0,0.0,0.0,0.08076923340559006,0.11666666716337204,9.45718002319336,0.0,0.0,0.0,0.0,0.0,0.0,0.0,0.0,0.0
1646350744.6561527,6686,1646350744,655737501,,0.0,0.0,0.0,0.0,0.0,0.0,0.0,0.0,0.0,0.0,0.0,0.0,0.0,0.6038543581962585,0.010769677348434925,-0.115639328956604,0.0,0.0,0.0,0.0,0.0,0.0,0.0,0.0,0.0,-0.06820512562990189,0.05384615436196327,9.581025123596191,0.0,0.0,0.0,0.0,0.0,0.0,0.0,0.0,0.0
1646350744.6584446,6687,1646350744,657951241,,0.0,0.0,0.0,0.0,0.0,0.0,0.0,0.0,0.0,0.0,0.0,0.0,0.0,0.5878753662109375,0.027813909575343132,-0.07302875071763992,0.0,0.0,0.0,0.0,0.0,0.0,0.0,0.0,0.0,0.2028205245733261,0.1705128252506256,9.046154022216797,0.0,0.0,0.0,0.0,0.0,0.0,0.0,0.0,0.0
1646350744.6605008,6688,1646350744,660175993,,0.0,0.0,0.0,0.0,0.0,0.0,0.0,0.0,0.0,0.0,0.0,0.0,0.0,0.5697658658027649,0.017161265015602112,-0.08155086636543274,0.0,0.0,0.0,0.0,0.0,0.0,0.0,0.0,0.0,0.3266666829586029,-0.20102564990520477,8.890000343322754,0.0,0.0,0.0,0.0,0.0,0.0,0.0,0.0,0.0
1646350744.662861,6689,1646350744,662418541,,0.0,0.0,0.0,0.0,0.0,0.0,0.0,0.0,0.0,0.0,0.0,0.0,0.0,0.5718963742256165,-0.010535608977079391,-0.1348140984773636,0.0,0.0,0.0,0.0,0.0,0.0,0.0,0.0,0.0,0.06102564185857773,-0.010769231244921684,9.44282054901123,0.0,0.0,0.0,0.0,0.0,0.0,0.0,0.0,0.0
1646350744.664964,6690,1646350744,664645932,,0.0,0.0,0.0,0.0,0.0,0.0,0.0,0.0,0.0,0.0,0.0,0.0,0.0,0.5580479502677917,0.027813909575343132,-0.07728981226682663,0.0,0.0,0.0,0.0,0.0,0.0,0.0,0.0,0.0,-0.05384615436196327,-0.19923077523708344,10.327692031860352,0.0,0.0,0.0,0.0,0.0,0.0,0.0,0.0,0.0
1646350744.6671567,6691,1646350744,666864249,,0.0,0.0,0.0,0.0,0.0,0.0,0.0,0.0,0.0,0.0,0.0,0.0,0.0,0.5676353573799133,0.02461811527609825,-0.09646457433700562,0.0,0.0,0.0,0.0,0.0,0.0,0.0,0.0,0.0,0.39666667580604553,-0.1794871836900711,9.798205375671387,0.0,0.0,0.0,0.0,0.0,0.0,0.0,0.0,0.0
1646350744.6695292,6692,1646350744,669128104,,0.0,0.0,0.0,0.0,0.0,0.0,0.0,0.0,0.0,0.0,0.0,0.0,0.0,0.5527216196060181,0.003312827320769429,-0.09966036677360535,0.0,0.0,0.0,0.0,0.0,0.0,0.0,0.0,0.0,0.4217948913574219,0.20820513367652893,9.975897789001465,0.0,0.0,0.0,0.0,0.0,0.0,0.0,0.0,0.0
1646350744.6719737,6693,1646350744,671551490,,0.0,0.0,0.0,0.0,0.0,0.0,0.0,0.0,0.0,0.0,0.0,0.0,0.0,0.5367426872253418,0.016095999628305435,-0.07835507392883301,0.0,0.0,0.0,0.0,0.0,0.0,0.0,0.0,0.0,0.16692309081554413,0.025128206238150597,9.286666870117188,0.0,0.0,0.0,0.0,0.0,0.0,0.0,0.0,0.0
1646350744.6742864,6694,1646350744,673783292,,0.0,0.0,0.0,0.0,0.0,0.0,0.0,0.0,0.0,0.0,0.0,0.0,0.0,0.5378079414367676,0.013965470716357231,-0.06876770406961441,0.0,0.0,0.0,0.0,0.0,0.0,0.0,0.0,0.0,-0.2620512843132019,0.2153846174478531,10.105128288269043,0.0,0.0,0.0,0.0,0.0,0.0,0.0,0.0,0.0
1646350744.6764038,6695,1646350744,676001638,,0.0,0.0,0.0,0.0,0.0,0.0,0.0,0.0,0.0,0.0,0.0,0.0,0.0,0.5250247716903687,0.01822652854025364,-0.08368139714002609,0.0,0.0,0.0,0.0,0.0,0.0,0.0,0.0,0.0,0.007179487496614456,-0.2566666603088379,9.85564136505127,0.0,0.0,0.0,0.0,0.0,0.0,0.0,0.0,0.0
1646350744.678758,6696,1646350744,678254636,,0.0,0.0,0.0,0.0,0.0,0.0,0.0,0.0,0.0,0.0,0.0,0.0,0.0,0.5324816107749939,0.023552851751446724,-0.057049788534641266,0.0,0.0,0.0,0.0,0.0,0.0,0.0,0.0,0.0,-0.09333333373069763,0.3769230842590332,10.263076782226562,0.0,0.0,0.0,0.0,0.0,0.0,0.0,0.0,0.0
1646350744.6809812,6697,1646350744,680508455,,0.0,0.0,0.0,0.0,0.0,0.0,0.0,0.0,0.0,0.0,0.0,0.0,0.0,0.5143721103668213,0.013965470716357231,-0.04746240749955177,0.0,0.0,0.0,0.0,0.0,0.0,0.0,0.0,0.0,0.32846155762672424,-0.012564103119075298,9.4858980178833,0.0,0.0,0.0,0.0,0.0,0.0,0.0,0.0,0.0
1646350744.6835182,6698,1646350744,682804374,,0.0,0.0,0.0,0.0,0.0,0.0,0.0,0.0,0.0,0.0,0.0,0.0,0.0,0.511176347732544,0.026748644188046455,-0.05172346532344818,0.0,0.0,0.0,0.0,0.0,0.0,0.0,0.0,0.0,0.3141025900840759,0.7933333516120911,9.75333309173584,0.0,0.0,0.0,0.0,0.0,0.0,0.0,0.0,0.0
1646350744.6855261,6699,1646350744,685081721,,0.0,0.0,0.0,0.0,0.0,0.0,0.0,0.0,0.0,0.0,0.0,0.0,0.0,0.5239595174789429,0.004378091543912888,-0.050658199936151505,0.0,0.0,0.0,0.0,0.0,0.0,0.0,0.0,0.0,-0.016153845936059952,0.4505128264427185,10.282820701599121,0.0,0.0,0.0,0.0,0.0,0.0,0.0,0.0,0.0
1646350744.689162,6700,1646350744,687307520,,0.0,0.0,0.0,0.0,0.0,0.0,0.0,0.0,0.0,0.0,0.0,0.0,0.0,0.5175679326057434,0.022487586364150047,-0.04959293454885483,0.0,0.0,0.0,0.0,0.0,0.0,0.0,0.0,0.0,-0.41641026735305786,0.032307691872119904,9.13769245147705,0.0,0.0,0.0,0.0,0.0,0.0,0.0,0.0,0.0
1646350744.6899495,6701,1646350744,689549266,,0.0,0.0,0.0,0.0,0.0,0.0,0.0,0.0,0.0,0.0,0.0,0.0,0.0,0.5005236864089966,0.03207496553659439,-0.04533188045024872,0.0,0.0,0.0,0.0,0.0,0.0,0.0,0.0,0.0,-0.05564102530479431,0.32307693362236023,9.525384902954102,0.0,0.0,0.0,0.0,0.0,0.0,0.0,0.0,0.0
1646350744.6921194,6702,1646350744,691762865,,0.0,0.0,0.0,0.0,0.0,0.0,0.0,0.0,0.0,0.0,0.0,0.0,0.0,0.5367426872253418,0.012900206260383129,-0.031483445316553116,0.0,0.0,0.0,0.0,0.0,0.0,0.0,0.0,0.0,-0.30512821674346924,0.13102564215660095,9.329743385314941,0.0,0.0,0.0,0.0,0.0,0.0,0.0,0.0,0.0
1646350744.694272,6703,1646350744,693973764,,0.0,0.0,0.0,0.0,0.0,0.0,0.0,0.0,0.0,0.0,0.0,0.0,0.0,0.5058500170707703,0.020357057452201843,-0.025091856718063354,0.0,0.0,0.0,0.0,0.0,0.0,0.0,0.0,0.0,0.16692309081554413,0.4271794855594635,9.494871139526367,0.0,0.0,0.0,0.0,0.0,0.0,0.0,0.0,0.0
1646350744.696556,6704,1646350744,696209039,,0.0,0.0,0.0,0.0,0.0,0.0,0.0,0.0,0.0,0.0,0.0,0.0,0.0,0.5505911111831665,0.031009702011942863,-0.02722238563001156,0.0,0.0,0.0,0.0,0.0,0.0,0.0,0.0,0.0,0.4038461744785309,0.24948717653751373,9.302820205688477,0.0,0.0,0.0,0.0,0.0,0.0,0.0,0.0,0.0
1646350744.6989093,6705,1646350744,698481647,,0.0,0.0,0.0,0.0,0.0,0.0,0.0,0.0,0.0,0.0,0.0,0.0,0.0,0.5186331868171692,0.017161265015602112,-0.02296132780611515,0.0,0.0,0.0,0.0,0.0,0.0,0.0,0.0,0.0,0.43974360823631287,0.6658974885940552,8.468204498291016,0.0,0.0,0.0,0.0,0.0,0.0,0.0,0.0,0.0
1646350744.7012992,6706,1646350744,700808980,,0.0,0.0,0.0,0.0,0.0,0.0,0.0,0.0,0.0,0.0,0.0,0.0,0.0,0.5591132044792175,0.004378091543912888,-0.043201349675655365,0.0,0.0,0.0,0.0,0.0,0.0,0.0,0.0,0.0,0.21717949211597443,0.28179487586021423,10.004615783691406,0.0,0.0,0.0,0.0,0.0,0.0,0.0,0.0,0.0
1646350744.7034414,6707,1646350744,703015670,,0.0,0.0,0.0,0.0,0.0,0.0,0.0,0.0,0.0,0.0,0.0,0.0,0.0,0.565504789352417,0.026748644188046455,-0.006982361897826195,0.0,0.0,0.0,0.0,0.0,0.0,0.0,0.0,0.0,-0.3805128335952759,-0.15256410837173462,9.70846176147461,0.0,0.0,0.0,0.0,0.0,0.0,0.0,0.0,0.0
1646350744.7056787,6708,1646350744,705215134,,0.0,0.0,0.0,0.0,0.0,0.0,0.0,0.0,0.0,0.0,0.0,0.0,0.0,0.556982696056366,0.012900206260383129,-0.0101781552657485,0.0,0.0,0.0,0.0,0.0,0.0,0.0,0.0,0.0,0.4235897660255432,0.14358974993228912,9.941795349121094,0.0,0.0,0.0,0.0,0.0,0.0,0.0,0.0,0.0
1646350744.7079117,6709,1646350744,707446582,,0.0,0.0,0.0,0.0,0.0,0.0,0.0,0.0,0.0,0.0,0.0,0.0,0.0,0.5367426872253418,0.023552851751446724,-0.016569742932915688,0.0,0.0,0.0,0.0,0.0,0.0,0.0,0.0,0.0,0.31948718428611755,0.30153846740722656,9.801794052124023,0.0,0.0,0.0,0.0,0.0,0.0,0.0,0.0,0.0
1646350744.7098985,6710,1646350744,709655144,,0.0,0.0,0.0,0.0,0.0,0.0,0.0,0.0,0.0,0.0,0.0,0.0,0.0,0.5708311200141907,0.041662342846393585,-0.017635004594922066,0.0,0.0,0.0,0.0,0.0,0.0,0.0,0.0,0.0,0.5312820672988892,0.5348718166351318,10.09076976776123,0.0,0.0,0.0,0.0,0.0,0.0,0.0,0.0,0.0
1646350744.7125514,6711,1646350744,711876749,,0.0,0.0,0.0,0.0,0.0,0.0,0.0,0.0,0.0,0.0,0.0,0.0,0.0,0.5335468649864197,0.02461811527609825,-0.015504478476941586,0.0,0.0,0.0,0.0,0.0,0.0,0.0,0.0,0.0,0.3482051491737366,0.21717949211597443,9.692307472229004,0.0,0.0,0.0,0.0,0.0,0.0,0.0,0.0,0.0
1646350744.7145333,6712,1646350744,714075453,,0.0,0.0,0.0,0.0,0.0,0.0,0.0,0.0,0.0,0.0,0.0,0.0,0.0,0.5516563653945923,0.04379286989569664,0.0058008101768791676,0.0,0.0,0.0,0.0,0.0,0.0,0.0,0.0,0.0,-0.01794871874153614,0.42538464069366455,10.232563972473145,0.0,0.0,0.0,0.0,0.0,0.0,0.0,0.0,0.0
1646350744.716515,6713,1646350744,716252713,,0.0,0.0,0.0,0.0,0.0,0.0,0.0,0.0,0.0,0.0,0.0,0.0,0.0,0.5175679326057434,0.02887917309999466,-0.011243419721722603,0.0,0.0,0.0,0.0,0.0,0.0,0.0,0.0,0.0,-0.09333333373069763,0.2476923167705536,9.922051429748535,0.0,0.0,0.0,0.0,0.0,0.0,0.0,0.0,0.0
1646350744.7191367,6714,1646350744,718670230,,0.0,0.0,0.0,0.0,0.0,0.0,0.0,0.0,0.0,0.0,0.0,0.0,0.0,0.5079805254936218,0.041662342846393585,-0.018700269982218742,0.0,0.0,0.0,0.0,0.0,0.0,0.0,0.0,0.0,0.3087179660797119,0.10410256683826447,9.835898399353027,0.0,0.0,0.0,0.0,0.0,0.0,0.0,0.0,0.0
1646350744.721436,6715,1646350744,720893789,,0.0,0.0,0.0,0.0,0.0,0.0,0.0,0.0,0.0,0.0,0.0,0.0,0.0,0.5101110339164734,0.04059707745909691,-0.004851834382861853,0.0,0.0,0.0,0.0,0.0,0.0,0.0,0.0,0.0,0.05205128341913223,0.4235897660255432,9.70846176147461,0.0,0.0,0.0,0.0,0.0,0.0,0.0,0.0,0.0
1646350744.723436,6716,1646350744,723115399,,0.0,0.0,0.0,0.0,0.0,0.0,0.0,0.0,0.0,0.0,0.0,0.0,0.0,0.5165026783943176,0.029944438487291336,-0.018700269982218742,0.0,0.0,0.0,0.0,0.0,0.0,0.0,0.0,0.0,0.1705128252506256,0.6264103055000305,9.532564163208008,0.0,0.0,0.0,0.0,0.0,0.0,0.0,0.0,0.0
1646350744.7256982,6717,1646350744,725324032,,0.0,0.0,0.0,0.0,0.0,0.0,0.0,0.0,0.0,0.0,0.0,0.0,0.0,0.5058500170707703,0.007573884446173906,-0.015504478476941586,0.0,0.0,0.0,0.0,0.0,0.0,0.0,0.0,0.0,0.05025641247630119,0.4720512926578522,9.817949295043945,0.0,0.0,0.0,0.0,0.0,0.0,0.0,0.0,0.0
1646350744.727934,6718,1646350744,727546394,,0.0,0.0,0.0,0.0,0.0,0.0,0.0,0.0,0.0,0.0,0.0,0.0,0.0,0.4845447242259979,0.04379286989569664,-0.020830798894166946,0.0,0.0,0.0,0.0,0.0,0.0,0.0,0.0,0.0,-0.28717949986457825,0.29076921939849854,9.68871784210205,0.0,0.0,0.0,0.0,0.0,0.0,0.0,0.0,0.0
1646350744.7302358,6719,1646350744,729746842,,0.0,0.0,0.0,0.0,0.0,0.0,0.0,0.0,0.0,0.0,0.0,0.0,0.0,0.48028364777565,0.041662342846393585,0.0047355457209050655,0.0,0.0,0.0,0.0,0.0,0.0,0.0,0.0,0.0,-0.31589746475219727,0.19025641679763794,9.826923370361328,0.0,0.0,0.0,0.0,0.0,0.0,0.0,0.0,0.0
