Time,header.seq,header.stamp.secs,header.stamp.nsecs,header.frame_id,orientation.x,orientation.y,orientation.z,orientation.w,orientation_covariance_0,orientation_covariance_1,orientation_covariance_2,orientation_covariance_3,orientation_covariance_4,orientation_covariance_5,orientation_covariance_6,orientation_covariance_7,orientation_covariance_8,angular_velocity.x,angular_velocity.y,angular_velocity.z,angular_velocity_covariance_0,angular_velocity_covariance_1,angular_velocity_covariance_2,angular_velocity_covariance_3,angular_velocity_covariance_4,angular_velocity_covariance_5,angular_velocity_covariance_6,angular_velocity_covariance_7,angular_velocity_covariance_8,linear_acceleration.x,linear_acceleration.y,linear_acceleration.z,linear_acceleration_covariance_0,linear_acceleration_covariance_1,linear_acceleration_covariance_2,linear_acceleration_covariance_3,linear_acceleration_covariance_4,linear_acceleration_covariance_5,linear_acceleration_covariance_6,linear_acceleration_covariance_7,linear_acceleration_covariance_8
1646351293.1970642,7641,1646351293,195525718,,0.0,0.0,0.0,0.0,0.0,0.0,0.0,0.0,0.0,0.0,0.0,0.0,0.0,0.023285245522856712,0.004378091543912888,-0.41923967003822327,0.0,0.0,0.0,0.0,0.0,0.0,0.0,0.0,0.0,-0.18666666746139526,0.45230770111083984,10.158974647521973,0.0,0.0,0.0,0.0,0.0,0.0,0.0,0.0,0.0
1646351293.198139,7642,1646351293,197799249,,0.0,0.0,0.0,0.0,0.0,0.0,0.0,0.0,0.0,0.0,0.0,0.0,0.0,0.03819894418120384,0.003312827320769429,-0.40645650029182434,0.0,0.0,0.0,0.0,0.0,0.0,0.0,0.0,0.0,0.06282051652669907,-0.18487180769443512,9.668973922729492,0.0,0.0,0.0,0.0,0.0,0.0,0.0,0.0,0.0
1646351293.2004042,7643,1646351293,200052348,,0.0,0.0,0.0,0.0,0.0,0.0,0.0,0.0,0.0,0.0,0.0,0.0,0.0,-0.005476894788444042,0.009704413823783398,-0.3713027834892273,0.0,0.0,0.0,0.0,0.0,0.0,0.0,0.0,0.0,0.3715384900569916,-0.26384615898132324,9.613333702087402,0.0,0.0,0.0,0.0,0.0,0.0,0.0,0.0,0.0
1646351293.2025552,7644,1646351293,202285074,,0.0,0.0,0.0,0.0,0.0,0.0,0.0,0.0,0.0,0.0,0.0,0.0,0.0,-0.012933745980262756,-0.016927195712924004,-0.36384591460227966,0.0,0.0,0.0,0.0,0.0,0.0,0.0,0.0,0.0,0.24589744210243225,0.3733333349227905,10.029743194580078,0.0,0.0,0.0,0.0,0.0,0.0,0.0,0.0,0.0
1646351293.2049913,7645,1646351293,204563842,,0.0,0.0,0.0,0.0,0.0,0.0,0.0,0.0,0.0,0.0,0.0,0.0,0.0,-0.018260065466165543,-0.01799245923757553,-0.3670417070388794,0.0,0.0,0.0,0.0,0.0,0.0,0.0,0.0,0.0,-0.45769232511520386,0.2853846251964569,10.072820663452148,0.0,0.0,0.0,0.0,0.0,0.0,0.0,0.0,0.0
1646351293.2071505,7646,1646351293,206832276,,0.0,0.0,0.0,0.0,0.0,0.0,0.0,0.0,0.0,0.0,0.0,0.0,0.0,-0.057674847543239594,-0.030775634571909904,-0.38621649146080017,0.0,0.0,0.0,0.0,0.0,0.0,0.0,0.0,0.0,-0.5941025614738464,0.40743592381477356,10.749486923217773,0.0,0.0,0.0,0.0,0.0,0.0,0.0,0.0,0.0
1646351293.2094917,7647,1646351293,209084654,,0.0,0.0,0.0,0.0,0.0,0.0,0.0,0.0,0.0,0.0,0.0,0.0,0.0,-0.0480874665081501,-0.03184089809656143,-0.3627806603908539,0.0,0.0,0.0,0.0,0.0,0.0,0.0,0.0,0.0,-0.5294871926307678,0.5420513153076172,10.234358787536621,0.0,0.0,0.0,0.0,0.0,0.0,0.0,0.0,0.0
1646351293.211642,7648,1646351293,211305802,,0.0,0.0,0.0,0.0,0.0,0.0,0.0,0.0,0.0,0.0,0.0,0.0,0.0,-0.04489167407155037,-0.05421144887804985,-0.3468016982078552,0.0,0.0,0.0,0.0,0.0,0.0,0.0,0.0,0.0,0.044871795922517776,0.19384616613388062,9.965128898620605,0.0,0.0,0.0,0.0,0.0,0.0,0.0,0.0,0.0
1646351293.2139382,7649,1646351293,213511533,,0.0,0.0,0.0,0.0,0.0,0.0,0.0,0.0,0.0,0.0,0.0,0.0,0.0,-0.017194801941514015,-0.04462406784296036,-0.34041014313697815,0.0,0.0,0.0,0.0,0.0,0.0,0.0,0.0,0.0,0.18128205835819244,-0.10051282495260239,9.554102897644043,0.0,0.0,0.0,0.0,0.0,0.0,0.0,0.0,0.0
1646351293.216146,7650,1646351293,215807114,,0.0,0.0,0.0,0.0,0.0,0.0,0.0,0.0,0.0,0.0,0.0,0.0,0.0,-0.0480874665081501,-0.041428275406360626,-0.35532382130622864,0.0,0.0,0.0,0.0,0.0,0.0,0.0,0.0,0.0,0.18666666746139526,0.012564103119075298,9.385384559631348,0.0,0.0,0.0,0.0,0.0,0.0,0.0,0.0,0.0
1646351293.2185605,7651,1646351293,218032418,,0.0,0.0,0.0,0.0,0.0,0.0,0.0,0.0,0.0,0.0,0.0,0.0,0.0,-0.016129538416862488,-0.06273356825113297,-0.35851961374282837,0.0,0.0,0.0,0.0,0.0,0.0,0.0,0.0,0.0,0.15076923370361328,0.38948720693588257,9.415897369384766,0.0,0.0,0.0,0.0,0.0,0.0,0.0,0.0,0.0
1646351293.2207828,7652,1646351293,220256833,,0.0,0.0,0.0,0.0,0.0,0.0,0.0,0.0,0.0,0.0,0.0,0.0,0.0,-0.017194801941514015,-0.06912515312433243,-0.32656171917915344,0.0,0.0,0.0,0.0,0.0,0.0,0.0,0.0,0.0,-0.4594871997833252,0.2674359083175659,9.656410217285156,0.0,0.0,0.0,0.0,0.0,0.0,0.0,0.0,0.0
1646351293.2229588,7653,1646351293,222465694,,0.0,0.0,0.0,0.0,0.0,0.0,0.0,0.0,0.0,0.0,0.0,0.0,0.0,-0.01932533085346222,-0.06805989146232605,-0.34041014313697815,0.0,0.0,0.0,0.0,0.0,0.0,0.0,0.0,0.0,-0.5205128192901611,0.39307692646980286,10.569999694824219,0.0,0.0,0.0,0.0,0.0,0.0,0.0,0.0,0.0
1646351293.2249527,7654,1646351293,224729634,,0.0,0.0,0.0,0.0,0.0,0.0,0.0,0.0,0.0,0.0,0.0,0.0,0.0,0.0009146920638158917,-0.05527671426534653,-0.3063216805458069,0.0,0.0,0.0,0.0,0.0,0.0,0.0,0.0,0.0,0.43974360823631287,-0.37512820959091187,9.00487232208252,0.0,0.0,0.0,0.0,0.0,0.0,0.0,0.0,0.0
1646351293.2271981,7655,1646351293,226929731,,0.0,0.0,0.0,0.0,0.0,0.0,0.0,0.0,0.0,0.0,0.0,0.0,0.0,-0.01186848059296608,-0.06699462234973907,-0.3009953498840332,0.0,0.0,0.0,0.0,0.0,0.0,0.0,0.0,0.0,-0.1058974415063858,0.43794873356819153,9.672564506530762,0.0,0.0,0.0,0.0,0.0,0.0,0.0,0.0,0.0
1646351293.229343,7656,1646351293,229101130,,0.0,0.0,0.0,0.0,0.0,0.0,0.0,0.0,0.0,0.0,0.0,0.0,0.0,0.008371543139219284,-0.0520809181034565,-0.3063216805458069,0.0,0.0,0.0,0.0,0.0,0.0,0.0,0.0,0.0,-0.19564102590084076,0.5384615659713745,9.74256420135498,0.0,0.0,0.0,0.0,0.0,0.0,0.0,0.0,0.0
1646351293.2315004,7657,1646351293,231259555,,0.0,0.0,0.0,0.0,0.0,0.0,0.0,0.0,0.0,0.0,0.0,0.0,0.0,0.025415774434804916,-0.05527671426534653,-0.27969005703926086,0.0,0.0,0.0,0.0,0.0,0.0,0.0,0.0,0.0,-0.9512820839881897,0.44692307710647583,10.20025634765625,0.0,0.0,0.0,0.0,0.0,0.0,0.0,0.0,0.0
1646351293.233679,7658,1646351293,233397371,,0.0,0.0,0.0,0.0,0.0,0.0,0.0,0.0,0.0,0.0,0.0,0.0,0.0,-0.002281100954860449,-0.048885125666856766,-0.27649426460266113,0.0,0.0,0.0,0.0,0.0,0.0,0.0,0.0,0.0,-0.25487178564071655,0.3571794927120209,10.388717651367188,0.0,0.0,0.0,0.0,0.0,0.0,0.0,0.0,0.0
1646351293.2359295,7659,1646351293,235584809,,0.0,0.0,0.0,0.0,0.0,0.0,0.0,0.0,0.0,0.0,0.0,0.0,0.0,0.010502072051167488,-0.02118825353682041,-0.2775595188140869,0.0,0.0,0.0,0.0,0.0,0.0,0.0,0.0,0.0,0.38948720693588257,-0.10051282495260239,9.426666259765625,0.0,0.0,0.0,0.0,0.0,0.0,0.0,0.0,0.0
1646351293.2380743,7660,1646351293,237732634,,0.0,0.0,0.0,0.0,0.0,0.0,0.0,0.0,0.0,0.0,0.0,0.0,0.0,0.008371543139219284,-0.03290615975856781,-0.2466668337583542,0.0,0.0,0.0,0.0,0.0,0.0,0.0,0.0,0.0,0.05743589997291565,-0.014358974993228912,9.525384902954102,0.0,0.0,0.0,0.0,0.0,0.0,0.0,0.0,0.0
1646351293.2402756,7661,1646351293,239941873,,0.0,0.0,0.0,0.0,0.0,0.0,0.0,0.0,0.0,0.0,0.0,0.0,0.0,-0.003346365410834551,-0.0424935407936573,-0.2519931495189667,0.0,0.0,0.0,0.0,0.0,0.0,0.0,0.0,0.0,0.023333333432674408,-0.14538460969924927,9.315383911132812,0.0,0.0,0.0,0.0,0.0,0.0,0.0,0.0,0.0
1646351293.2424092,7662,1646351293,242133214,,0.0,0.0,0.0,0.0,0.0,0.0,0.0,0.0,0.0,0.0,0.0,0.0,0.0,-0.02678218111395836,-0.0009482299210503697,-0.23388366401195526,0.0,0.0,0.0,0.0,0.0,0.0,0.0,0.0,0.0,-0.2764102518558502,0.46666666865348816,10.126666069030762,0.0,0.0,0.0,0.0,0.0,0.0,0.0,0.0,0.0
1646351293.2444932,7663,1646351293,244269194,,0.0,0.0,0.0,0.0,0.0,0.0,0.0,0.0,0.0,0.0,0.0,0.0,0.0,-0.02571691758930683,-0.02225351706147194,-0.2274920791387558,0.0,0.0,0.0,0.0,0.0,0.0,0.0,0.0,0.0,-0.014358974993228912,0.13641025125980377,9.914872169494629,0.0,0.0,0.0,0.0,0.0,0.0,0.0,0.0,0.0
1646351293.2467544,7664,1646351293,246463228,,0.0,0.0,0.0,0.0,0.0,0.0,0.0,0.0,0.0,0.0,0.0,0.0,0.0,-0.021455859765410423,-0.041428275406360626,-0.22536155581474304,0.0,0.0,0.0,0.0,0.0,0.0,0.0,0.0,0.0,-0.18487180769443512,0.34641027450561523,9.941795349121094,0.0,0.0,0.0,0.0,0.0,0.0,0.0,0.0,0.0
1646351293.2490413,7665,1646351293,248747324,,0.0,0.0,0.0,0.0,0.0,0.0,0.0,0.0,0.0,0.0,0.0,0.0,0.0,-0.005476894788444042,-0.006274553015828133,-0.22642681002616882,0.0,0.0,0.0,0.0,0.0,0.0,0.0,0.0,0.0,0.12923076748847961,0.007179487496614456,9.74794864654541,0.0,0.0,0.0,0.0,0.0,0.0,0.0,0.0,0.0
1646351293.2512646,7666,1646351293,250951844,,0.0,0.0,0.0,0.0,0.0,0.0,0.0,0.0,0.0,0.0,0.0,0.0,0.0,-0.04489167407155037,-0.023318784311413765,-0.1902078241109848,0.0,0.0,0.0,0.0,0.0,0.0,0.0,0.0,0.0,-0.09153846651315689,-0.24230769276618958,9.73717975616455,0.0,0.0,0.0,0.0,0.0,0.0,0.0,0.0,0.0
1646351293.253446,7667,1646351293,253172855,,0.0,0.0,0.0,0.0,0.0,0.0,0.0,0.0,0.0,0.0,0.0,0.0,0.0,-0.016129538416862488,-0.003078758716583252,-0.19553415477275848,0.0,0.0,0.0,0.0,0.0,0.0,0.0,0.0,0.0,-0.12025640904903412,0.20461538434028625,10.011795043945312,0.0,0.0,0.0,0.0,0.0,0.0,0.0,0.0,0.0
1646351293.2556918,7668,1646351293,255381099,,0.0,0.0,0.0,0.0,0.0,0.0,0.0,0.0,0.0,0.0,0.0,0.0,0.0,-0.02678218111395836,-0.009470346383750439,-0.17422886192798615,0.0,0.0,0.0,0.0,0.0,0.0,0.0,0.0,0.0,-0.31589746475219727,0.01794871874153614,9.570256233215332,0.0,0.0,0.0,0.0,0.0,0.0,0.0,0.0,0.0
1646351293.2579103,7669,1646351293,257551144,,0.0,0.0,0.0,0.0,0.0,0.0,0.0,0.0,0.0,0.0,0.0,0.0,0.0,-0.013999010436236858,0.001182297826744616,-0.15824991464614868,0.0,0.0,0.0,0.0,0.0,0.0,0.0,0.0,0.0,-0.007179487496614456,0.2853846251964569,9.871794700622559,0.0,0.0,0.0,0.0,0.0,0.0,0.0,0.0,0.0
1646351293.25998,7670,1646351293,259784324,,0.0,0.0,0.0,0.0,0.0,0.0,0.0,0.0,0.0,0.0,0.0,0.0,0.0,-0.021455859765410423,-0.013731402345001698,-0.16464149951934814,0.0,0.0,0.0,0.0,0.0,0.0,0.0,0.0,0.0,-0.2297435998916626,-0.19384616613388062,9.543333053588867,0.0,0.0,0.0,0.0,0.0,0.0,0.0,0.0,0.0
1646351293.2622685,7671,1646351293,261953668,,0.0,0.0,0.0,0.0,0.0,0.0,0.0,0.0,0.0,0.0,0.0,0.0,0.0,0.0030452206265181303,-0.0009482299210503697,-0.11670459806919098,0.0,0.0,0.0,0.0,0.0,0.0,0.0,0.0,0.0,0.2387179583311081,0.06820512562990189,9.710256576538086,0.0,0.0,0.0,0.0,0.0,0.0,0.0,0.0,0.0
1646351293.2643468,7672,1646351293,264108424,,0.0,0.0,0.0,0.0,0.0,0.0,0.0,0.0,0.0,0.0,0.0,0.0,0.0,-0.013999010436236858,-0.03397142514586449,-0.11457406729459763,0.0,0.0,0.0,0.0,0.0,0.0,0.0,0.0,0.0,0.2997435927391052,-0.005384615622460842,9.862820625305176,0.0,0.0,0.0,0.0,0.0,0.0,0.0,0.0,0.0
1646351293.2665274,7673,1646351293,266259073,,0.0,0.0,0.0,0.0,0.0,0.0,0.0,0.0,0.0,0.0,0.0,0.0,0.0,0.005175749771296978,-0.012666137889027596,-0.1113782748579979,0.0,0.0,0.0,0.0,0.0,0.0,0.0,0.0,0.0,0.03769230842590332,0.27820512652397156,9.803589820861816,0.0,0.0,0.0,0.0,0.0,0.0,0.0,0.0,0.0
1646351293.2692754,7674,1646351293,268450116,,0.0,0.0,0.0,0.0,0.0,0.0,0.0,0.0,0.0,0.0,0.0,0.0,0.0,-0.00441163033246994,-0.009470346383750439,-0.08900772035121918,0.0,0.0,0.0,0.0,0.0,0.0,0.0,0.0,0.0,0.23692308366298676,0.03948718309402466,9.65461540222168,0.0,0.0,0.0,0.0,0.0,0.0,0.0,0.0,0.0
1646351293.270826,7675,1646351293,270599662,,0.0,0.0,0.0,0.0,0.0,0.0,0.0,0.0,0.0,0.0,0.0,0.0,0.0,0.013697865419089794,-0.008405081927776337,-0.06344137340784073,0.0,0.0,0.0,0.0,0.0,0.0,0.0,0.0,0.0,0.014358974993228912,0.030512820929288864,9.618718147277832,0.0,0.0,0.0,0.0,0.0,0.0,0.0,0.0,0.0
1646351293.2730484,7676,1646351293,272797975,,0.0,0.0,0.0,0.0,0.0,0.0,0.0,0.0,0.0,0.0,0.0,0.0,0.0,0.02008945122361183,-0.011600873433053493,-0.060245580971241,0.0,0.0,0.0,0.0,0.0,0.0,0.0,0.0,0.0,0.1561538577079773,0.3823077082633972,9.85564136505127,0.0,0.0,0.0,0.0,0.0,0.0,0.0,0.0,0.0
1646351293.2753415,7677,1646351293,274975416,,0.0,0.0,0.0,0.0,0.0,0.0,0.0,0.0,0.0,0.0,0.0,0.0,0.0,0.01156733650714159,-0.029710371047258377,-0.04852767288684845,0.0,0.0,0.0,0.0,0.0,0.0,0.0,0.0,0.0,0.21358974277973175,0.07897436618804932,9.469743728637695,0.0,0.0,0.0,0.0,0.0,0.0,0.0,0.0,0.0
1646351293.2774873,7678,1646351293,277191882,,0.0,0.0,0.0,0.0,0.0,0.0,0.0,0.0,0.0,0.0,0.0,0.0,0.0,0.026481037959456444,-0.01799245923757553,-0.043201349675655365,0.0,0.0,0.0,0.0,0.0,0.0,0.0,0.0,0.0,0.08974359184503555,0.35538461804389954,9.886154174804688,0.0,0.0,0.0,0.0,0.0,0.0,0.0,0.0,0.0
1646351293.2796454,7679,1646351293,279352564,,0.0,0.0,0.0,0.0,0.0,0.0,0.0,0.0,0.0,0.0,0.0,0.0,0.0,0.017958922311663628,-0.03716721758246422,-0.02296132780611515,0.0,0.0,0.0,0.0,0.0,0.0,0.0,0.0,0.0,0.21717949211597443,-0.044871795922517776,9.299230575561523,0.0,0.0,0.0,0.0,0.0,0.0,0.0,0.0,0.0
1646351293.2819164,7680,1646351293,281556783,,0.0,0.0,0.0,0.0,0.0,0.0,0.0,0.0,0.0,0.0,0.0,0.0,0.0,0.014763129875063896,-0.02225351706147194,-0.005917098838835955,0.0,0.0,0.0,0.0,0.0,0.0,0.0,0.0,0.0,0.05564102530479431,0.38410258293151855,9.651025772094727,0.0,0.0,0.0,0.0,0.0,0.0,0.0,0.0,0.0
1646351293.2839828,7681,1646351293,283707578,,0.0,0.0,0.0,0.0,0.0,0.0,0.0,0.0,0.0,0.0,0.0,0.0,0.0,0.010502072051167488,-0.02225351706147194,0.0026050168089568615,0.0,0.0,0.0,0.0,0.0,0.0,0.0,0.0,0.0,-0.03948718309402466,-0.1058974415063858,9.380000114440918,0.0,0.0,0.0,0.0,0.0,0.0,0.0,0.0,0.0
1646351293.2861805,7682,1646351293,285869432,,0.0,0.0,0.0,0.0,0.0,0.0,0.0,0.0,0.0,0.0,0.0,0.0,0.0,0.009436807595193386,-0.0286451056599617,0.012192396447062492,0.0,0.0,0.0,0.0,0.0,0.0,0.0,0.0,0.0,0.1382051259279251,-0.1651282161474228,9.254359245300293,0.0,0.0,0.0,0.0,0.0,0.0,0.0,0.0,0.0
1646351293.288269,7683,1646351293,288032805,,0.0,0.0,0.0,0.0,0.0,0.0,0.0,0.0,0.0,0.0,0.0,0.0,0.0,0.006241013761609793,-0.020122988149523735,0.04841138795018196,0.0,0.0,0.0,0.0,0.0,0.0,0.0,0.0,0.0,0.1058974415063858,0.18666666746139526,9.672564506530762,0.0,0.0,0.0,0.0,0.0,0.0,0.0,0.0,0.0
1646351293.2904675,7684,1646351293,290194320,,0.0,0.0,0.0,0.0,0.0,0.0,0.0,0.0,0.0,0.0,0.0,0.0,0.0,0.037133678793907166,-0.04462406784296036,0.0420197993516922,0.0,0.0,0.0,0.0,0.0,0.0,0.0,0.0,0.0,0.05384615436196327,0.1148717999458313,9.342308044433594,0.0,0.0,0.0,0.0,0.0,0.0,0.0,0.0,0.0
1646351293.2926326,7685,1646351293,292412473,,0.0,0.0,0.0,0.0,0.0,0.0,0.0,0.0,0.0,0.0,0.0,0.0,0.0,0.01156733650714159,-0.023318784311413765,0.043085064738988876,0.0,0.0,0.0,0.0,0.0,0.0,0.0,0.0,0.0,0.17769230902194977,0.21717949211597443,9.794615745544434,0.0,0.0,0.0,0.0,0.0,0.0,0.0,0.0,0.0
1646351293.2948186,7686,1646351293,294620404,,0.0,0.0,0.0,0.0,0.0,0.0,0.0,0.0,0.0,0.0,0.0,0.0,0.0,0.02115471661090851,-0.02225351706147194,0.0654556155204773,0.0,0.0,0.0,0.0,0.0,0.0,0.0,0.0,0.0,0.0,0.05564102530479431,9.231025695800781,0.0,0.0,0.0,0.0,0.0,0.0,0.0,0.0,0.0
1646351293.2970414,7687,1646351293,296789589,,0.0,0.0,0.0,0.0,0.0,0.0,0.0,0.0,0.0,0.0,0.0,0.0,0.0,0.023285245522856712,-0.02118825353682041,0.06652087718248367,0.0,0.0,0.0,0.0,0.0,0.0,0.0,0.0,0.0,-0.003589743748307228,0.3410256505012512,9.735384941101074,0.0,0.0,0.0,0.0,0.0,0.0,0.0,0.0,0.0
1646351293.2992108,7688,1646351293,298968709,,0.0,0.0,0.0,0.0,0.0,0.0,0.0,0.0,0.0,0.0,0.0,0.0,0.0,0.017958922311663628,-0.010535608977079391,0.07823879271745682,0.0,0.0,0.0,0.0,0.0,0.0,0.0,0.0,0.0,0.046666666865348816,0.2997435927391052,9.615128517150879,0.0,0.0,0.0,0.0,0.0,0.0,0.0,0.0,0.0
1646351293.3013904,7689,1646351293,301131852,,0.0,0.0,0.0,0.0,0.0,0.0,0.0,0.0,0.0,0.0,0.0,0.0,0.0,-0.003346365410834551,-0.03929774835705757,0.09847880154848099,0.0,0.0,0.0,0.0,0.0,0.0,0.0,0.0,0.0,-0.028717949986457825,-0.07000000029802322,9.252564430236816,0.0,0.0,0.0,0.0,0.0,0.0,0.0,0.0,0.0
1646351293.3035023,7690,1646351293,303288310,,0.0,0.0,0.0,0.0,0.0,0.0,0.0,0.0,0.0,0.0,0.0,0.0,0.0,0.014763129875063896,-0.015861930325627327,0.03882400318980217,0.0,0.0,0.0,0.0,0.0,0.0,0.0,0.0,0.0,-0.06641025841236115,0.3141025900840759,9.65461540222168,0.0,0.0,0.0,0.0,0.0,0.0,0.0,0.0,0.0
1646351293.3059137,7691,1646351293,305459392,,0.0,0.0,0.0,0.0,0.0,0.0,0.0,0.0,0.0,0.0,0.0,0.0,0.0,0.0009146920638158917,-0.0020134944934397936,0.08995670825242996,0.0,0.0,0.0,0.0,0.0,0.0,0.0,0.0,0.0,-0.2064102590084076,0.03948718309402466,9.182563781738281,0.0,0.0,0.0,0.0,0.0,0.0,0.0,0.0,0.0
1646351293.3077953,7692,1646351293,307592851,,0.0,0.0,0.0,0.0,0.0,0.0,0.0,0.0,0.0,0.0,0.0,0.0,0.0,0.004110485315322876,-0.02544931322336197,0.08569564670324326,0.0,0.0,0.0,0.0,0.0,0.0,0.0,0.0,0.0,0.0825641080737114,0.4774359166622162,9.647436141967773,0.0,0.0,0.0,0.0,0.0,0.0,0.0,0.0,0.0
1646351293.3106334,7693,1646351293,309816176,,0.0,0.0,0.0,0.0,0.0,0.0,0.0,0.0,0.0,0.0,0.0,0.0,0.0,0.023285245522856712,-0.0009482299210503697,0.09634827822446823,0.0,0.0,0.0,0.0,0.0,0.0,0.0,0.0,0.0,0.044871795922517776,0.11128205060958862,9.45358943939209,0.0,0.0,0.0,0.0,0.0,0.0,0.0,0.0,0.0
1646351293.3122163,7694,1646351293,311973328,,0.0,0.0,0.0,0.0,0.0,0.0,0.0,0.0,0.0,0.0,0.0,0.0,0.0,-0.005476894788444042,-0.009470346383750439,0.10060933232307434,0.0,0.0,0.0,0.0,0.0,0.0,0.0,0.0,0.0,0.003589743748307228,0.27820512652397156,9.478717803955078,0.0,0.0,0.0,0.0,0.0,0.0,0.0,0.0,0.0
1646351293.3144617,7695,1646351293,314126315,,0.0,0.0,0.0,0.0,0.0,0.0,0.0,0.0,0.0,0.0,0.0,0.0,0.0,-0.003346365410834551,0.00011703448399202898,0.10593565553426743,0.0,0.0,0.0,0.0,0.0,0.0,0.0,0.0,0.0,0.06102564185857773,0.25128206610679626,9.469743728637695,0.0,0.0,0.0,0.0,0.0,0.0,0.0,0.0,0.0
1646351293.3167908,7696,1646351293,316291762,,0.0,0.0,0.0,0.0,0.0,0.0,0.0,0.0,0.0,0.0,0.0,0.0,0.0,0.02008945122361183,0.007573884446173906,0.0835651159286499,0.0,0.0,0.0,0.0,0.0,0.0,0.0,0.0,0.0,0.03769230842590332,0.42538464069366455,9.419486999511719,0.0,0.0,0.0,0.0,0.0,0.0,0.0,0.0,0.0
1646351293.318805,7697,1646351293,318484814,,0.0,0.0,0.0,0.0,0.0,0.0,0.0,0.0,0.0,0.0,0.0,0.0,0.0,-0.007607422769069672,0.010769677348434925,0.08036932349205017,0.0,0.0,0.0,0.0,0.0,0.0,0.0,0.0,0.0,0.12923076748847961,0.16333334147930145,9.415897369384766,0.0,0.0,0.0,0.0,0.0,0.0,0.0,0.0,0.0
1646351293.3210003,7698,1646351293,320728778,,0.0,0.0,0.0,0.0,0.0,0.0,0.0,0.0,0.0,0.0,0.0,0.0,0.0,0.005175749771296978,0.008639149367809296,0.10167459398508072,0.0,0.0,0.0,0.0,0.0,0.0,0.0,0.0,0.0,-0.007179487496614456,0.4415384829044342,9.636667251586914,0.0,0.0,0.0,0.0,0.0,0.0,0.0,0.0,0.0
1646351293.323256,7699,1646351293,322883297,,0.0,0.0,0.0,0.0,0.0,0.0,0.0,0.0,0.0,0.0,0.0,0.0,0.0,0.012632600963115692,-0.0020134944934397936,0.051607176661491394,0.0,0.0,0.0,0.0,0.0,0.0,0.0,0.0,0.0,-0.03410256281495094,0.2889743745326996,9.89512825012207,0.0,0.0,0.0,0.0,0.0,0.0,0.0,0.0,0.0
1646351293.3253877,7700,1646351293,325051868,,0.0,0.0,0.0,0.0,0.0,0.0,0.0,0.0,0.0,0.0,0.0,0.0,0.0,-0.009737951681017876,0.00224756239913404,0.09847880154848099,0.0,0.0,0.0,0.0,0.0,0.0,0.0,0.0,0.0,-0.42000001668930054,0.005384615622460842,9.414102554321289,0.0,0.0,0.0,0.0,0.0,0.0,0.0,0.0,0.0
1646351293.327429,7701,1646351293,327191552,,0.0,0.0,0.0,0.0,0.0,0.0,0.0,0.0,0.0,0.0,0.0,0.0,0.0,0.001979956403374672,0.016095999628305435,0.059064026921987534,0.0,0.0,0.0,0.0,0.0,0.0,0.0,0.0,0.0,-0.24589744210243225,0.3535897731781006,9.947179794311523,0.0,0.0,0.0,0.0,0.0,0.0,0.0,0.0,0.0
1646351293.3297977,7702,1646351293,329413635,,0.0,0.0,0.0,0.0,0.0,0.0,0.0,0.0,0.0,0.0,0.0,0.0,0.0,-0.00441163033246994,0.023552851751446724,0.08143459260463715,0.0,0.0,0.0,0.0,0.0,0.0,0.0,0.0,0.0,-0.17230769991874695,0.05025641247630119,9.633076667785645,0.0,0.0,0.0,0.0,0.0,0.0,0.0,0.0,0.0
1646351293.3321066,7703,1646351293,331670675,,0.0,0.0,0.0,0.0,0.0,0.0,0.0,0.0,0.0,0.0,0.0,0.0,0.0,-0.00654215831309557,0.009704413823783398,0.03456294909119606,0.0,0.0,0.0,0.0,0.0,0.0,0.0,0.0,0.0,-0.07538461685180664,0.47025641798973083,10.155384063720703,0.0,0.0,0.0,0.0,0.0,0.0,0.0,0.0,0.0
1646351293.334484,7704,1646351293,333974220,,0.0,0.0,0.0,0.0,0.0,0.0,0.0,0.0,0.0,0.0,0.0,0.0,0.0,-0.008672687225043774,0.006508619990199804,0.051607176661491394,0.0,0.0,0.0,0.0,0.0,0.0,0.0,0.0,0.0,-0.3123077154159546,0.3482051491737366,10.044102668762207,0.0,0.0,0.0,0.0,0.0,0.0,0.0,0.0,0.0
1646351293.3366416,7705,1646351293,336249278,,0.0,0.0,0.0,0.0,0.0,0.0,0.0,0.0,0.0,0.0,0.0,0.0,0.0,-0.01186848059296608,0.02887917309999466,0.06652087718248367,0.0,0.0,0.0,0.0,0.0,0.0,0.0,0.0,0.0,-0.15974359214305878,0.07179487496614456,9.765897750854492,0.0,0.0,0.0,0.0,0.0,0.0,0.0,0.0,0.0
1646351293.338883,7706,1646351293,338452949,,0.0,0.0,0.0,0.0,0.0,0.0,0.0,0.0,0.0,0.0,0.0,0.0,0.0,-0.03317376971244812,0.019291793927550316,0.0558682344853878,0.0,0.0,0.0,0.0,0.0,0.0,0.0,0.0,0.0,-0.23333333432674408,0.23333333432674408,9.936410903930664,0.0,0.0,0.0,0.0,0.0,0.0,0.0,0.0,0.0
1646351293.341162,7707,1646351293,340651492,,0.0,0.0,0.0,0.0,0.0,0.0,0.0,0.0,0.0,0.0,0.0,0.0,0.0,-0.010803216136991978,0.020357057452201843,0.04628085717558861,0.0,0.0,0.0,0.0,0.0,0.0,0.0,0.0,0.0,0.06461538374423981,0.20461538434028625,9.717435836791992,0.0,0.0,0.0,0.0,0.0,0.0,0.0,0.0,0.0
1646351293.343256,7708,1646351293,342902561,,0.0,0.0,0.0,0.0,0.0,0.0,0.0,0.0,0.0,0.0,0.0,0.0,0.0,-0.028912710025906563,0.013965470716357231,0.029236625880002975,0.0,0.0,0.0,0.0,0.0,0.0,0.0,0.0,0.0,0.07897436618804932,0.5725641250610352,10.205641746520996,0.0,0.0,0.0,0.0,0.0,0.0,0.0,0.0,0.0
1646351293.3456578,7709,1646351293,345218356,,0.0,0.0,0.0,0.0,0.0,0.0,0.0,0.0,0.0,0.0,0.0,0.0,0.0,-0.01932533085346222,0.003312827320769429,0.04415033012628555,0.0,0.0,0.0,0.0,0.0,0.0,0.0,0.0,0.0,0.11307692527770996,0.13641025125980377,9.730000495910645,0.0,0.0,0.0,0.0,0.0,0.0,0.0,0.0,0.0
1646351293.3477576,7710,1646351293,347405897,,0.0,0.0,0.0,0.0,0.0,0.0,0.0,0.0,0.0,0.0,0.0,0.0,0.0,-0.01186848059296608,0.006508619990199804,0.03136715292930603,0.0,0.0,0.0,0.0,0.0,0.0,0.0,0.0,0.0,-0.05025641247630119,0.42897436022758484,10.352821350097656,0.0,0.0,0.0,0.0,0.0,0.0,0.0,0.0,0.0
1646351293.3500748,7711,1646351293,349653723,,0.0,0.0,0.0,0.0,0.0,0.0,0.0,0.0,0.0,0.0,0.0,0.0,0.0,-0.016129538416862488,-0.008405081927776337,0.03775873780250549,0.0,0.0,0.0,0.0,0.0,0.0,0.0,0.0,0.0,-0.1651282161474228,0.026923077180981636,9.914872169494629,0.0,0.0,0.0,0.0,0.0,0.0,0.0,0.0,0.0
1646351293.3537788,7712,1646351293,351893678,,0.0,0.0,0.0,0.0,0.0,0.0,0.0,0.0,0.0,0.0,0.0,0.0,0.0,-0.00654215831309557,-0.0009482299210503697,0.03775873780250549,0.0,0.0,0.0,0.0,0.0,0.0,0.0,0.0,0.0,0.010769231244921684,0.0735897421836853,9.825127601623535,0.0,0.0,0.0,0.0,0.0,0.0,0.0,0.0,0.0
1646351293.3544166,7713,1646351293,354095077,,0.0,0.0,0.0,0.0,0.0,0.0,0.0,0.0,0.0,0.0,0.0,0.0,0.0,-0.003346365410834551,-0.006274553015828133,-0.0005907765007577837,0.0,0.0,0.0,0.0,0.0,0.0,0.0,0.0,0.0,-0.14897435903549194,0.21358974277973175,10.266667366027832,0.0,0.0,0.0,0.0,0.0,0.0,0.0,0.0,0.0
1646351293.356642,7714,1646351293,356310694,,0.0,0.0,0.0,0.0,0.0,0.0,0.0,0.0,0.0,0.0,0.0,0.0,0.0,-0.01506427489221096,-0.003078758716583252,0.0281713604927063,0.0,0.0,0.0,0.0,0.0,0.0,0.0,0.0,0.0,0.09153846651315689,0.1382051259279251,9.816153526306152,0.0,0.0,0.0,0.0,0.0,0.0,0.0,0.0,0.0
1646351293.358883,7715,1646351293,358521333,,0.0,0.0,0.0,0.0,0.0,0.0,0.0,0.0,0.0,0.0,0.0,0.0,0.0,0.01689365692436695,-0.030775634571909904,0.01112713199108839,0.0,0.0,0.0,0.0,0.0,0.0,0.0,0.0,0.0,0.012564103119075298,0.4792307913303375,10.306154251098633,0.0,0.0,0.0,0.0,0.0,0.0,0.0,0.0,0.0
1646351293.3612683,7716,1646351293,360835996,,0.0,0.0,0.0,0.0,0.0,0.0,0.0,0.0,0.0,0.0,0.0,0.0,0.0,0.02008945122361183,-0.010535608977079391,0.017518719658255577,0.0,0.0,0.0,0.0,0.0,0.0,0.0,0.0,0.0,0.10230769217014313,-0.06282051652669907,9.828718185424805,0.0,0.0,0.0,0.0,0.0,0.0,0.0,0.0,0.0
1646351293.3635292,7717,1646351293,363070557,,0.0,0.0,0.0,0.0,0.0,0.0,0.0,0.0,0.0,0.0,0.0,0.0,0.0,-0.0012158364988863468,-0.03610195219516754,0.00686607463285327,0.0,0.0,0.0,0.0,0.0,0.0,0.0,0.0,0.0,0.026923077180981636,0.3176923394203186,9.873589515686035,0.0,0.0,0.0,0.0,0.0,0.0,0.0,0.0,0.0
1646351293.365704,7718,1646351293,365278085,,0.0,0.0,0.0,0.0,0.0,0.0,0.0,0.0,0.0,0.0,0.0,0.0,0.0,0.01156733650714159,-0.03290615975856781,-0.017635004594922066,0.0,0.0,0.0,0.0,0.0,0.0,0.0,0.0,0.0,0.14538460969924927,0.08076923340559006,9.931025505065918,0.0,0.0,0.0,0.0,0.0,0.0,0.0,0.0,0.0
1646351293.367892,7719,1646351293,367479336,,0.0,0.0,0.0,0.0,0.0,0.0,0.0,0.0,0.0,0.0,0.0,0.0,0.0,-0.00441163033246994,-0.03503669053316116,-0.005917098838835955,0.0,0.0,0.0,0.0,0.0,0.0,0.0,0.0,0.0,0.00897435937076807,0.3823077082633972,9.932821273803711,0.0,0.0,0.0,0.0,0.0,0.0,0.0,0.0,0.0
1646351293.3700368,7720,1646351293,369703410,,0.0,0.0,0.0,0.0,0.0,0.0,0.0,0.0,0.0,0.0,0.0,0.0,0.0,-0.00015057262498885393,-0.026514576748013496,0.0026050168089568615,0.0,0.0,0.0,0.0,0.0,0.0,0.0,0.0,0.0,0.03769230842590332,0.044871795922517776,10.001025199890137,0.0,0.0,0.0,0.0,0.0,0.0,0.0,0.0,0.0
1646351293.3722878,7721,1646351293,371913575,,0.0,0.0,0.0,0.0,0.0,0.0,0.0,0.0,0.0,0.0,0.0,0.0,0.0,-0.013999010436236858,-0.016927195712924004,0.0047355457209050655,0.0,0.0,0.0,0.0,0.0,0.0,0.0,0.0,0.0,-0.3482051491737366,-0.1058974415063858,9.740769386291504,0.0,0.0,0.0,0.0,0.0,0.0,0.0,0.0,0.0
1646351293.374569,7722,1646351293,374121182,,0.0,0.0,0.0,0.0,0.0,0.0,0.0,0.0,0.0,0.0,0.0,0.0,0.0,0.008371543139219284,-0.019057724624872208,-0.018700269982218742,0.0,0.0,0.0,0.0,0.0,0.0,0.0,0.0,0.0,-0.24589744210243225,0.33743590116500854,10.5,0.0,0.0,0.0,0.0,0.0,0.0,0.0,0.0,0.0
1646351293.3768756,7723,1646351293,376469757,,0.0,0.0,0.0,0.0,0.0,0.0,0.0,0.0,0.0,0.0,0.0,0.0,0.0,-0.016129538416862488,-0.005209287628531456,-0.0027213047724217176,0.0,0.0,0.0,0.0,0.0,0.0,0.0,0.0,0.0,-0.18666666746139526,-0.10051282495260239,9.441025733947754,0.0,0.0,0.0,0.0,0.0,0.0,0.0,0.0,0.0
1646351293.3791695,7724,1646351293,378674667,,0.0,0.0,0.0,0.0,0.0,0.0,0.0,0.0,0.0,0.0,0.0,0.0,0.0,-0.008672687225043774,-0.01799245923757553,0.014322925359010696,0.0,0.0,0.0,0.0,0.0,0.0,0.0,0.0,0.0,-0.11666666716337204,0.2117948830127716,9.893333435058594,0.0,0.0,0.0,0.0,0.0,0.0,0.0,0.0,0.0
1646351293.381426,7725,1646351293,380950605,,0.0,0.0,0.0,0.0,0.0,0.0,0.0,0.0,0.0,0.0,0.0,0.0,0.0,-0.01932533085346222,0.001182297826744616,0.010061867535114288,0.0,0.0,0.0,0.0,0.0,0.0,0.0,0.0,0.0,0.22615385055541992,-0.02153846248984337,9.598974227905273,0.0,0.0,0.0,0.0,0.0,0.0,0.0,0.0,0.0
1646351293.3837569,7726,1646351293,383225005,,0.0,0.0,0.0,0.0,0.0,0.0,0.0,0.0,0.0,0.0,0.0,0.0,0.0,0.0009146920638158917,-0.02118825353682041,0.018583983182907104,0.0,0.0,0.0,0.0,0.0,0.0,0.0,0.0,0.0,0.22435897588729858,0.20102564990520477,9.731794357299805,0.0,0.0,0.0,0.0,0.0,0.0,0.0,0.0,0.0
1646351293.38577,7727,1646351293,385463667,,0.0,0.0,0.0,0.0,0.0,0.0,0.0,0.0,0.0,0.0,0.0,0.0,0.0,-0.04169588163495064,0.007573884446173906,-0.0101781552657485,0.0,0.0,0.0,0.0,0.0,0.0,0.0,0.0,0.0,0.0735897421836853,-0.06282051652669907,9.760512351989746,0.0,0.0,0.0,0.0,0.0,0.0,0.0,0.0,0.0
1646351293.3881538,7728,1646351293,387735862,,0.0,0.0,0.0,0.0,0.0,0.0,0.0,0.0,0.0,0.0,0.0,0.0,0.0,-0.00654215831309557,0.001182297826744616,0.010061867535114288,0.0,0.0,0.0,0.0,0.0,0.0,0.0,0.0,0.0,0.2889743745326996,-0.07179487496614456,9.423076629638672,0.0,0.0,0.0,0.0,0.0,0.0,0.0,0.0,0.0
1646351293.3904288,7729,1646351293,389940981,,0.0,0.0,0.0,0.0,0.0,0.0,0.0,0.0,0.0,0.0,0.0,0.0,0.0,-0.008672687225043774,0.012900206260383129,-0.018700269982218742,0.0,0.0,0.0,0.0,0.0,0.0,0.0,0.0,0.0,-0.02153846248984337,0.2530769407749176,10.044102668762207,0.0,0.0,0.0,0.0,0.0,0.0,0.0,0.0,0.0
1646351293.3926733,7730,1646351293,392182070,,0.0,0.0,0.0,0.0,0.0,0.0,0.0,0.0,0.0,0.0,0.0,0.0,0.0,-0.01506427489221096,-0.005209287628531456,0.01112713199108839,0.0,0.0,0.0,0.0,0.0,0.0,0.0,0.0,0.0,0.20820513367652893,-0.2889743745326996,9.380000114440918,0.0,0.0,0.0,0.0,0.0,0.0,0.0,0.0,0.0
1646351293.3956969,7731,1646351293,394395251,,0.0,0.0,0.0,0.0,0.0,0.0,0.0,0.0,0.0,0.0,0.0,0.0,0.0,-0.02997797727584839,-0.004144023172557354,-0.011243419721722603,0.0,0.0,0.0,0.0,0.0,0.0,0.0,0.0,0.0,-0.13461539149284363,0.28179487586021423,10.083589553833008,0.0,0.0,0.0,0.0,0.0,0.0,0.0,0.0,0.0
1646351293.3972008,7732,1646351293,396703749,,0.0,0.0,0.0,0.0,0.0,0.0,0.0,0.0,0.0,0.0,0.0,0.0,0.0,-0.005476894788444042,0.011834941804409027,0.012192396447062492,0.0,0.0,0.0,0.0,0.0,0.0,0.0,0.0,0.0,-0.14179487526416779,-0.05205128341913223,9.564871788024902,0.0,0.0,0.0,0.0,0.0,0.0,0.0,0.0,0.0
1646351293.3992796,7733,1646351293,398914755,,0.0,0.0,0.0,0.0,0.0,0.0,0.0,0.0,0.0,0.0,0.0,0.0,0.0,-0.016129538416862488,-0.0020134944934397936,0.03136715292930603,0.0,0.0,0.0,0.0,0.0,0.0,0.0,0.0,0.0,-0.11666666716337204,-0.03589743748307228,9.668973922729492,0.0,0.0,0.0,0.0,0.0,0.0,0.0,0.0,0.0
1646351293.4015093,7734,1646351293,401164470,,0.0,0.0,0.0,0.0,0.0,0.0,0.0,0.0,0.0,0.0,0.0,0.0,0.0,0.0009146920638158917,0.020357057452201843,0.000474488188046962,0.0,0.0,0.0,0.0,0.0,0.0,0.0,0.0,0.0,-0.010769231244921684,0.05923077091574669,9.965128898620605,0.0,0.0,0.0,0.0,0.0,0.0,0.0,0.0,0.0
1646351293.4037814,7735,1646351293,403403751,,0.0,0.0,0.0,0.0,0.0,0.0,0.0,0.0,0.0,0.0,0.0,0.0,0.0,-0.01932533085346222,-0.012666137889027596,0.01964924857020378,0.0,0.0,0.0,0.0,0.0,0.0,0.0,0.0,0.0,0.1328205168247223,-0.15794873237609863,9.39794921875,0.0,0.0,0.0,0.0,0.0,0.0,0.0,0.0,0.0
1646351293.40589,7736,1646351293,405636843,,0.0,0.0,0.0,0.0,0.0,0.0,0.0,0.0,0.0,0.0,0.0,0.0,0.0,0.001979956403374672,0.012900206260383129,0.0058008101768791676,0.0,0.0,0.0,0.0,0.0,0.0,0.0,0.0,0.0,0.05025641247630119,0.07897436618804932,9.462564468383789,0.0,0.0,0.0,0.0,0.0,0.0,0.0,0.0,0.0
1646351293.4084113,7737,1646351293,407948880,,0.0,0.0,0.0,0.0,0.0,0.0,0.0,0.0,0.0,0.0,0.0,0.0,0.0,0.0030452206265181303,0.009704413823783398,0.021779777482151985,0.0,0.0,0.0,0.0,0.0,0.0,0.0,0.0,0.0,0.2441025674343109,-0.3141025900840759,9.157435417175293,0.0,0.0,0.0,0.0,0.0,0.0,0.0,0.0,0.0
1646351293.4104905,7738,1646351293,410160991,,0.0,0.0,0.0,0.0,0.0,0.0,0.0,0.0,0.0,0.0,0.0,0.0,0.0,0.015828393399715424,-0.013731402345001698,0.03136715292930603,0.0,0.0,0.0,0.0,0.0,0.0,0.0,0.0,0.0,0.007179487496614456,0.19384616613388062,10.05666732788086,0.0,0.0,0.0,0.0,0.0,0.0,0.0,0.0,0.0
1646351293.4126768,7739,1646351293,412407804,,0.0,0.0,0.0,0.0,0.0,0.0,0.0,0.0,0.0,0.0,0.0,0.0,0.0,0.004110485315322876,0.00544335599988699,0.06652087718248367,0.0,0.0,0.0,0.0,0.0,0.0,0.0,0.0,0.0,-0.18307693302631378,-0.12025640904903412,9.704872131347656,0.0,0.0,0.0,0.0,0.0,0.0,0.0,0.0,0.0
1646351293.4148304,7740,1646351293,414603230,,0.0,0.0,0.0,0.0,0.0,0.0,0.0,0.0,0.0,0.0,0.0,0.0,0.0,0.006241013761609793,0.01822652854025364,0.03775873780250549,0.0,0.0,0.0,0.0,0.0,0.0,0.0,0.0,0.0,-0.1651282161474228,0.24948717653751373,10.11230754852295,0.0,0.0,0.0,0.0,0.0,0.0,0.0,0.0,0.0
1646351293.4171758,7741,1646351293,416787223,,0.0,0.0,0.0,0.0,0.0,0.0,0.0,0.0,0.0,0.0,0.0,0.0,0.0,0.029676830396056175,0.015030735172331333,0.05693349987268448,0.0,0.0,0.0,0.0,0.0,0.0,0.0,0.0,0.0,-0.2674359083175659,0.1794871836900711,9.875385284423828,0.0,0.0,0.0,0.0,0.0,0.0,0.0,0.0,0.0
1646351293.419178,7742,1646351293,418947623,,0.0,0.0,0.0,0.0,0.0,0.0,0.0,0.0,0.0,0.0,0.0,0.0,0.0,0.001979956403374672,0.017161265015602112,0.07717353105545044,0.0,0.0,0.0,0.0,0.0,0.0,0.0,0.0,0.0,-0.1328205168247223,-0.05564102530479431,9.464359283447266,0.0,0.0,0.0,0.0,0.0,0.0,0.0,0.0,0.0
1646351293.4213395,7743,1646351293,421120077,,0.0,0.0,0.0,0.0,0.0,0.0,0.0,0.0,0.0,0.0,0.0,0.0,0.0,0.03180735930800438,0.001182297826744616,0.05373770371079445,0.0,0.0,0.0,0.0,0.0,0.0,0.0,0.0,0.0,-0.2476923167705536,0.22794872522354126,9.952564239501953,0.0,0.0,0.0,0.0,0.0,0.0,0.0,0.0,0.0
1646351293.42357,7744,1646351293,423310919,,0.0,0.0,0.0,0.0,0.0,0.0,0.0,0.0,0.0,0.0,0.0,0.0,0.0,0.03500314801931381,0.013965470716357231,0.07504300028085709,0.0,0.0,0.0,0.0,0.0,0.0,0.0,0.0,0.0,-0.4828205108642578,-0.13102564215660095,9.51282024383545,0.0,0.0,0.0,0.0,0.0,0.0,0.0,0.0,0.0
1646351293.4258566,7745,1646351293,425460787,,0.0,0.0,0.0,0.0,0.0,0.0,0.0,0.0,0.0,0.0,0.0,0.0,0.0,0.04139474034309387,0.027813909575343132,0.04947664961218834,0.0,0.0,0.0,0.0,0.0,0.0,0.0,0.0,0.0,-0.07538461685180664,0.18307693302631378,9.568461418151855,0.0,0.0,0.0,0.0,0.0,0.0,0.0,0.0,0.0
1646351293.427911,7746,1646351293,427618749,,0.0,0.0,0.0,0.0,0.0,0.0,0.0,0.0,0.0,0.0,0.0,0.0,0.0,0.050982117652893066,0.010769677348434925,0.08463038504123688,0.0,0.0,0.0,0.0,0.0,0.0,0.0,0.0,0.0,0.014358974993228912,-0.28358975052833557,9.107179641723633,0.0,0.0,0.0,0.0,0.0,0.0,0.0,0.0,0.0
1646351293.4300363,7747,1646351293,429803467,,0.0,0.0,0.0,0.0,0.0,0.0,0.0,0.0,0.0,0.0,0.0,0.0,0.0,0.044590532779693604,-0.0009482299210503697,0.10167459398508072,0.0,0.0,0.0,0.0,0.0,0.0,0.0,0.0,0.0,0.20820513367652893,0.12025640904903412,9.615128517150879,0.0,0.0,0.0,0.0,0.0,0.0,0.0,0.0,0.0
1646351293.432265,7748,1646351293,432012829,,0.0,0.0,0.0,0.0,0.0,0.0,0.0,0.0,0.0,0.0,0.0,0.0,0.0,0.022219980135560036,0.03207496553659439,0.1027398630976677,0.0,0.0,0.0,0.0,0.0,0.0,0.0,0.0,0.0,0.17769230902194977,-0.1238461583852768,9.406923294067383,0.0,0.0,0.0,0.0,0.0,0.0,0.0,0.0,0.0
1646351293.4344552,7749,1646351293,434181088,,0.0,0.0,0.0,0.0,0.0,0.0,0.0,0.0,0.0,0.0,0.0,0.0,0.0,0.052047379314899445,0.015030735172331333,0.1346977949142456,0.0,0.0,0.0,0.0,0.0,0.0,0.0,0.0,0.0,-0.17230769991874695,0.2889743745326996,9.979487419128418,0.0,0.0,0.0,0.0,0.0,0.0,0.0,0.0,0.0
1646351293.4374394,7750,1646351293,436352187,,0.0,0.0,0.0,0.0,0.0,0.0,0.0,0.0,0.0,0.0,0.0,0.0,0.0,0.009436807595193386,0.025683380663394928,0.09954407066106796,0.0,0.0,0.0,0.0,0.0,0.0,0.0,0.0,0.0,0.07000000029802322,-0.001794871874153614,9.977692604064941,0.0,0.0,0.0,0.0,0.0,0.0,0.0,0.0,0.0
1646351293.4390318,7751,1646351293,438543919,,0.0,0.0,0.0,0.0,0.0,0.0,0.0,0.0,0.0,0.0,0.0,0.0,0.0,0.017958922311663628,0.00224756239913404,0.12191461771726608,0.0,0.0,0.0,0.0,0.0,0.0,0.0,0.0,0.0,0.2387179583311081,-0.18666666746139526,9.647436141967773,0.0,0.0,0.0,0.0,0.0,0.0,0.0,0.0,0.0
1646351293.441257,7752,1646351293,440777965,,0.0,0.0,0.0,0.0,0.0,0.0,0.0,0.0,0.0,0.0,0.0,0.0,0.0,-0.009737951681017876,0.011834941804409027,0.12404514849185944,0.0,0.0,0.0,0.0,0.0,0.0,0.0,0.0,0.0,-0.03769230842590332,0.1561538577079773,10.135641098022461,0.0,0.0,0.0,0.0,0.0,0.0,0.0,0.0,0.0
1646351293.44354,7753,1646351293,443037500,,0.0,0.0,0.0,0.0,0.0,0.0,0.0,0.0,0.0,0.0,0.0,0.0,0.0,-0.012933745980262756,0.015030735172331333,0.12404514849185944,0.0,0.0,0.0,0.0,0.0,0.0,0.0,0.0,0.0,-0.1705128252506256,-0.36615386605262756,9.503846168518066,0.0,0.0,0.0,0.0,0.0,0.0,0.0,0.0,0.0
1646351293.446195,7754,1646351293,445336483,,0.0,0.0,0.0,0.0,0.0,0.0,0.0,0.0,0.0,0.0,0.0,0.0,0.0,-0.00654215831309557,-0.007339817471802235,0.13256727159023285,0.0,0.0,0.0,0.0,0.0,0.0,0.0,0.0,0.0,-0.2441025674343109,0.3087179660797119,10.566410064697266,0.0,0.0,0.0,0.0,0.0,0.0,0.0,0.0,0.0
1646351293.447805,7755,1646351293,447546658,,0.0,0.0,0.0,0.0,0.0,0.0,0.0,0.0,0.0,0.0,0.0,0.0,0.0,-0.028912710025906563,0.007573884446173906,0.12404514849185944,0.0,0.0,0.0,0.0,0.0,0.0,0.0,0.0,0.0,-0.16692309081554413,-0.1328205168247223,9.846667289733887,0.0,0.0,0.0,0.0,0.0,0.0,0.0,0.0,0.0
1646351293.4499497,7756,1646351293,449756250,,0.0,0.0,0.0,0.0,0.0,0.0,0.0,0.0,0.0,0.0,0.0,0.0,0.0,-0.01186848059296608,-0.02544931322336197,0.1581336259841919,0.0,0.0,0.0,0.0,0.0,0.0,0.0,0.0,0.0,-0.11128205060958862,-0.21358974277973175,9.862820625305176,0.0,0.0,0.0,0.0,0.0,0.0,0.0,0.0,0.0
1646351293.4525151,7757,1646351293,451979387,,0.0,0.0,0.0,0.0,0.0,0.0,0.0,0.0,0.0,0.0,0.0,0.0,0.0,-0.045956939458847046,-0.003078758716583252,0.13789358735084534,0.0,0.0,0.0,0.0,0.0,0.0,0.0,0.0,0.0,0.10948718339204788,0.005384615622460842,9.681538581848145,0.0,0.0,0.0,0.0,0.0,0.0,0.0,0.0,0.0
1646351293.4546142,7758,1646351293,454247110,,0.0,0.0,0.0,0.0,0.0,0.0,0.0,0.0,0.0,0.0,0.0,0.0,0.0,-0.008672687225043774,-0.009470346383750439,0.15067677199840546,0.0,0.0,0.0,0.0,0.0,0.0,0.0,0.0,0.0,0.07179487496614456,-0.048461541533470154,9.536153793334961,0.0,0.0,0.0,0.0,0.0,0.0,0.0,0.0,0.0
1646351293.4570868,7759,1646351293,456498433,,0.0,0.0,0.0,0.0,0.0,0.0,0.0,0.0,0.0,0.0,0.0,0.0,0.0,-0.0480874665081501,-0.0009482299210503697,0.14535045623779297,0.0,0.0,0.0,0.0,0.0,0.0,0.0,0.0,0.0,-0.1705128252506256,0.1238461583852768,9.783845901489258,0.0,0.0,0.0,0.0,0.0,0.0,0.0,0.0,0.0
1646351293.4591565,7760,1646351293,458760666,,0.0,0.0,0.0,0.0,0.0,0.0,0.0,0.0,0.0,0.0,0.0,0.0,0.0,-0.04489167407155037,-0.041428275406360626,0.1538725644350052,0.0,0.0,0.0,0.0,0.0,0.0,0.0,0.0,0.0,-0.16692309081554413,-0.31948718428611755,9.756922721862793,0.0,0.0,0.0,0.0,0.0,0.0,0.0,0.0,0.0
1646351293.4613428,7761,1646351293,460964451,,0.0,0.0,0.0,0.0,0.0,0.0,0.0,0.0,0.0,0.0,0.0,0.0,0.0,-0.01506427489221096,0.017161265015602112,0.17304733395576477,0.0,0.0,0.0,0.0,0.0,0.0,0.0,0.0,0.0,-0.29076921939849854,0.30153846740722656,10.282820701599121,0.0,0.0,0.0,0.0,0.0,0.0,0.0,0.0,0.0
1646351293.4636242,7762,1646351293,463181768,,0.0,0.0,0.0,0.0,0.0,0.0,0.0,0.0,0.0,0.0,0.0,0.0,0.0,-0.02997797727584839,-0.023318784311413765,0.17517785727977753,0.0,0.0,0.0,0.0,0.0,0.0,0.0,0.0,0.0,-0.23153845965862274,-0.025128206238150597,9.823333740234375,0.0,0.0,0.0,0.0,0.0,0.0,0.0,0.0,0.0
1646351293.4656098,7763,1646351293,465378922,,0.0,0.0,0.0,0.0,0.0,0.0,0.0,0.0,0.0,0.0,0.0,0.0,0.0,-0.009737951681017876,-0.008405081927776337,0.18796101212501526,0.0,0.0,0.0,0.0,0.0,0.0,0.0,0.0,0.0,0.016153845936059952,0.13641025125980377,10.074614524841309,0.0,0.0,0.0,0.0,0.0,0.0,0.0,0.0,0.0
1646351293.4682248,7764,1646351293,467617992,,0.0,0.0,0.0,0.0,0.0,0.0,0.0,0.0,0.0,0.0,0.0,0.0,0.0,0.001979956403374672,-0.041428275406360626,0.18263469636440277,0.0,0.0,0.0,0.0,0.0,0.0,0.0,0.0,0.0,-0.003589743748307228,-0.35179489850997925,9.362051010131836,0.0,0.0,0.0,0.0,0.0,0.0,0.0,0.0,0.0
1646351293.4702597,7765,1646351293,469845035,,0.0,0.0,0.0,0.0,0.0,0.0,0.0,0.0,0.0,0.0,0.0,0.0,0.0,0.005175749771296978,-0.009470346383750439,0.20287472009658813,0.0,0.0,0.0,0.0,0.0,0.0,0.0,0.0,0.0,0.23692308366298676,-0.26384615898132324,9.59538459777832,0.0,0.0,0.0,0.0,0.0,0.0,0.0,0.0,0.0
1646351293.4725673,7766,1646351293,472116357,,0.0,0.0,0.0,0.0,0.0,0.0,0.0,0.0,0.0,0.0,0.0,0.0,0.0,-0.005476894788444042,-0.024384047836065292,0.19222207367420197,0.0,0.0,0.0,0.0,0.0,0.0,0.0,0.0,0.0,0.07000000029802322,0.048461541533470154,9.85025691986084,0.0,0.0,0.0,0.0,0.0,0.0,0.0,0.0,0.0
1646351293.4748302,7767,1646351293,474385530,,0.0,0.0,0.0,0.0,0.0,0.0,0.0,0.0,0.0,0.0,0.0,0.0,0.0,0.009436807595193386,-0.019057724624872208,0.19861365854740143,0.0,0.0,0.0,0.0,0.0,0.0,0.0,0.0,0.0,0.13641025125980377,-0.39307692646980286,9.667179107666016,0.0,0.0,0.0,0.0,0.0,0.0,0.0,0.0,0.0
1646351293.477002,7768,1646351293,476601416,,0.0,0.0,0.0,0.0,0.0,0.0,0.0,0.0,0.0,0.0,0.0,0.0,0.0,0.005175749771296978,-0.023318784311413765,0.19648313522338867,0.0,0.0,0.0,0.0,0.0,0.0,0.0,0.0,0.0,0.18666666746139526,0.005384615622460842,9.785640716552734,0.0,0.0,0.0,0.0,0.0,0.0,0.0,0.0,0.0
1646351293.4800017,7769,1646351293,478817500,,0.0,0.0,0.0,0.0,0.0,0.0,0.0,0.0,0.0,0.0,0.0,0.0,0.0,0.02008945122361183,-0.02544931322336197,0.22098422050476074,0.0,0.0,0.0,0.0,0.0,0.0,0.0,0.0,0.0,0.5241025686264038,-0.18666666746139526,9.412307739257812,0.0,0.0,0.0,0.0,0.0,0.0,0.0,0.0,0.0
1646351293.4814231,7770,1646351293,481074629,,0.0,0.0,0.0,0.0,0.0,0.0,0.0,0.0,0.0,0.0,0.0,0.0,0.0,0.025415774434804916,-0.02225351706147194,0.22204947471618652,0.0,0.0,0.0,0.0,0.0,0.0,0.0,0.0,0.0,0.24230769276618958,0.05384615436196327,9.871794700622559,0.0,0.0,0.0,0.0,0.0,0.0,0.0,0.0,0.0
1646351293.483722,7771,1646351293,483331191,,0.0,0.0,0.0,0.0,0.0,0.0,0.0,0.0,0.0,0.0,0.0,0.0,0.0,0.008371543139219284,-0.006274553015828133,0.24442003667354584,0.0,0.0,0.0,0.0,0.0,0.0,0.0,0.0,0.0,0.026923077180981636,-0.026923077180981636,9.755127906799316,0.0,0.0,0.0,0.0,0.0,0.0,0.0,0.0,0.0
1646351293.4860854,7772,1646351293,485554422,,0.0,0.0,0.0,0.0,0.0,0.0,0.0,0.0,0.0,0.0,0.0,0.0,0.0,0.052047379314899445,-0.01799245923757553,0.22950632870197296,0.0,0.0,0.0,0.0,0.0,0.0,0.0,0.0,0.0,-0.10769230872392654,0.36974361538887024,10.038718223571777,0.0,0.0,0.0,0.0,0.0,0.0,0.0,0.0,0.0
1646351293.4881616,7773,1646351293,487752933,,0.0,0.0,0.0,0.0,0.0,0.0,0.0,0.0,0.0,0.0,0.0,0.0,0.0,0.05311264470219612,-0.04995039105415344,0.22418001294136047,0.0,0.0,0.0,0.0,0.0,0.0,0.0,0.0,0.0,0.19564102590084076,-0.05384615436196327,9.69948673248291,0.0,0.0,0.0,0.0,0.0,0.0,0.0,0.0,0.0
1646351293.4903388,7774,1646351293,489953746,,0.0,0.0,0.0,0.0,0.0,0.0,0.0,0.0,0.0,0.0,0.0,0.0,0.0,0.04991685226559639,-0.02544931322336197,0.2412242442369461,0.0,0.0,0.0,0.0,0.0,0.0,0.0,0.0,0.0,-0.11128205060958862,-0.03948718309402466,9.376410484313965,0.0,0.0,0.0,0.0,0.0,0.0,0.0,0.0,0.0
1646351293.492582,7775,1646351293,492174681,,0.0,0.0,0.0,0.0,0.0,0.0,0.0,0.0,0.0,0.0,0.0,0.0,0.0,0.07974426448345184,-0.010535608977079391,0.23376739025115967,0.0,0.0,0.0,0.0,0.0,0.0,0.0,0.0,0.0,0.15794873237609863,0.21000000834465027,9.40871810913086,0.0,0.0,0.0,0.0,0.0,0.0,0.0,0.0,0.0
1646351293.4947584,7776,1646351293,494392362,,0.0,0.0,0.0,0.0,0.0,0.0,0.0,0.0,0.0,0.0,0.0,0.0,0.0,0.08507058769464493,-0.02118825353682041,0.24974635243415833,0.0,0.0,0.0,0.0,0.0,0.0,0.0,0.0,0.0,-0.05384615436196327,-0.08076923340559006,9.559487342834473,0.0,0.0,0.0,0.0,0.0,0.0,0.0,0.0,0.0
1646351293.4974785,7777,1646351293,496630666,,0.0,0.0,0.0,0.0,0.0,0.0,0.0,0.0,0.0,0.0,0.0,0.0,0.0,0.07867900282144547,-0.013731402345001698,0.23057159781455994,0.0,0.0,0.0,0.0,0.0,0.0,0.0,0.0,0.0,-0.21897436678409576,0.31589746475219727,9.957948684692383,0.0,0.0,0.0,0.0,0.0,0.0,0.0,0.0,0.0
1646351293.4992807,7778,1646351293,498910333,,0.0,0.0,0.0,0.0,0.0,0.0,0.0,0.0,0.0,0.0,0.0,0.0,0.0,0.08400531858205795,-0.02118825353682041,0.2327021211385727,0.0,0.0,0.0,0.0,0.0,0.0,0.0,0.0,0.0,-0.03769230842590332,0.11666666716337204,10.083589553833008,0.0,0.0,0.0,0.0,0.0,0.0,0.0,0.0,0.0
1646351293.5017235,7779,1646351293,501182541,,0.0,0.0,0.0,0.0,0.0,0.0,0.0,0.0,0.0,0.0,0.0,0.0,0.0,0.07228740304708481,-0.023318784311413765,0.2508116066455841,0.0,0.0,0.0,0.0,0.0,0.0,0.0,0.0,0.0,-0.14179487526416779,0.7735897898674011,10.359999656677246,0.0,0.0,0.0,0.0,0.0,0.0,0.0,0.0,0.0
1646351293.5039747,7780,1646351293,503500967,,0.0,0.0,0.0,0.0,0.0,0.0,0.0,0.0,0.0,0.0,0.0,0.0,0.0,0.07228740304708481,0.00544335599988699,0.2646600604057312,0.0,0.0,0.0,0.0,0.0,0.0,0.0,0.0,0.0,0.12205128371715546,0.4558974504470825,9.692307472229004,0.0,0.0,0.0,0.0,0.0,0.0,0.0,0.0,0.0
1646351293.5061777,7781,1646351293,505782313,,0.0,0.0,0.0,0.0,0.0,0.0,0.0,0.0,0.0,0.0,0.0,0.0,0.0,0.052047379314899445,-0.013731402345001698,0.26252952218055725,0.0,0.0,0.0,0.0,0.0,0.0,0.0,0.0,0.0,-0.05923077091574669,0.016153845936059952,9.61153793334961,0.0,0.0,0.0,0.0,0.0,0.0,0.0,0.0,0.0
1646351293.5084267,7782,1646351293,508033457,,0.0,0.0,0.0,0.0,0.0,0.0,0.0,0.0,0.0,0.0,0.0,0.0,0.0,0.0541779100894928,-0.012666137889027596,0.27211689949035645,0.0,0.0,0.0,0.0,0.0,0.0,0.0,0.0,0.0,0.1382051259279251,0.007179487496614456,9.573845863342285,0.0,0.0,0.0,0.0,0.0,0.0,0.0,0.0,0.0
1646351293.5107393,7783,1646351293,510304939,,0.0,0.0,0.0,0.0,0.0,0.0,0.0,0.0,0.0,0.0,0.0,0.0,0.0,0.04246000573039055,-0.003078758716583252,0.25400739908218384,0.0,0.0,0.0,0.0,0.0,0.0,0.0,0.0,0.0,-0.1884615421295166,-0.010769231244921684,10.43897533416748,0.0,0.0,0.0,0.0,0.0,0.0,0.0,0.0,0.0
1646351293.5129313,7784,1646351293,512517076,,0.0,0.0,0.0,0.0,0.0,0.0,0.0,0.0,0.0,0.0,0.0,0.0,0.0,0.052047379314899445,-0.02225351706147194,0.26146426796913147,0.0,0.0,0.0,0.0,0.0,0.0,0.0,0.0,0.0,-0.005384615622460842,0.4361538589000702,10.05846118927002,0.0,0.0,0.0,0.0,0.0,0.0,0.0,0.0,0.0
1646351293.5152216,7785,1646351293,514777000,,0.0,0.0,0.0,0.0,0.0,0.0,0.0,0.0,0.0,0.0,0.0,0.0,0.0,0.014763129875063896,-0.013731402345001698,0.27211689949035645,0.0,0.0,0.0,0.0,0.0,0.0,0.0,0.0,0.0,-0.2656410336494446,0.40205129981040955,10.087179183959961,0.0,0.0,0.0,0.0,0.0,0.0,0.0,0.0,0.0
1646351293.517381,7786,1646351293,516991919,,0.0,0.0,0.0,0.0,0.0,0.0,0.0,0.0,0.0,0.0,0.0,0.0,0.0,0.008371543139219284,-0.006274553015828133,0.26679059863090515,0.0,0.0,0.0,0.0,0.0,0.0,0.0,0.0,0.0,0.2674359083175659,0.003589743748307228,9.353076934814453,0.0,0.0,0.0,0.0,0.0,0.0,0.0,0.0,0.0
1646351293.519585,7787,1646351293,519205797,,0.0,0.0,0.0,0.0,0.0,0.0,0.0,0.0,0.0,0.0,0.0,0.0,0.0,-0.01932533085346222,0.008639149367809296,0.2838348150253296,0.0,0.0,0.0,0.0,0.0,0.0,0.0,0.0,0.0,0.003589743748307228,0.2710256576538086,9.695897102355957,0.0,0.0,0.0,0.0,0.0,0.0,0.0,0.0,0.0
1646351293.5232081,7788,1646351293,521453769,,0.0,0.0,0.0,0.0,0.0,0.0,0.0,0.0,0.0,0.0,0.0,0.0,0.0,-0.012933745980262756,-0.003078758716583252,0.28596535325050354,0.0,0.0,0.0,0.0,0.0,0.0,0.0,0.0,0.0,-0.16692309081554413,0.17769230902194977,9.530769348144531,0.0,0.0,0.0,0.0,0.0,0.0,0.0,0.0,0.0
1646351293.52417,7789,1646351293,523665081,,0.0,0.0,0.0,0.0,0.0,0.0,0.0,0.0,0.0,0.0,0.0,0.0,0.0,-0.031043240800499916,0.013965470716357231,0.25720319151878357,0.0,0.0,0.0,0.0,0.0,0.0,0.0,0.0,0.0,-0.20102564990520477,0.3715384900569916,10.162564277648926,0.0,0.0,0.0,0.0,0.0,0.0,0.0,0.0,0.0
1646351293.5262628,7790,1646351293,525874231,,0.0,0.0,0.0,0.0,0.0,0.0,0.0,0.0,0.0,0.0,0.0,0.0,0.0,-0.05234852433204651,-0.016927195712924004,0.29981377720832825,0.0,0.0,0.0,0.0,0.0,0.0,0.0,0.0,0.0,-0.5223076939582825,0.4002564251422882,10.135641098022461,0.0,0.0,0.0,0.0,0.0,0.0,0.0,0.0,0.0
1646351293.5285268,7791,1646351293,528135923,,0.0,0.0,0.0,0.0,0.0,0.0,0.0,0.0,0.0,0.0,0.0,0.0,0.0,-0.06726223230361938,0.00224756239913404,0.2870306074619293,0.0,0.0,0.0,0.0,0.0,0.0,0.0,0.0,0.0,-0.2441025674343109,0.7000000476837158,9.983077049255371,0.0,0.0,0.0,0.0,0.0,0.0,0.0,0.0,0.0
1646351293.5310426,7792,1646351293,530489620,,0.0,0.0,0.0,0.0,0.0,0.0,0.0,0.0,0.0,0.0,0.0,0.0,0.0,-0.05447905510663986,0.013965470716357231,0.292356938123703,0.0,0.0,0.0,0.0,0.0,0.0,0.0,0.0,0.0,-0.026923077180981636,-0.18487180769443512,9.730000495910645,0.0,0.0,0.0,0.0,0.0,0.0,0.0,0.0,0.0
1646351293.5332904,7793,1646351293,532838587,,0.0,0.0,0.0,0.0,0.0,0.0,0.0,0.0,0.0,0.0,0.0,0.0,0.0,-0.09708963334560394,0.010769677348434925,0.3104664385318756,0.0,0.0,0.0,0.0,0.0,0.0,0.0,0.0,0.0,0.44692307710647583,-0.07717949151992798,9.2615385055542,0.0,0.0,0.0,0.0,0.0,0.0,0.0,0.0,0.0
1646351293.5359213,7794,1646351293,535081438,,0.0,0.0,0.0,0.0,0.0,0.0,0.0,0.0,0.0,0.0,0.0,0.0,0.0,-0.1130685955286026,0.004378091543912888,0.29874852299690247,0.0,0.0,0.0,0.0,0.0,0.0,0.0,0.0,0.0,0.001794871874153614,0.28358975052833557,9.690512657165527,0.0,0.0,0.0,0.0,0.0,0.0,0.0,0.0,0.0
1646351293.5389297,7795,1646351293,537333520,,0.0,0.0,0.0,0.0,0.0,0.0,0.0,0.0,0.0,0.0,0.0,0.0,0.0,-0.11093807220458984,0.012900206260383129,0.3008790612220764,0.0,0.0,0.0,0.0,0.0,0.0,0.0,0.0,0.0,-0.1148717999458313,0.03769230842590332,9.821538925170898,0.0,0.0,0.0,0.0,0.0,0.0,0.0,0.0,0.0
1646351293.539994,7796,1646351293,539580566,,0.0,0.0,0.0,0.0,0.0,0.0,0.0,0.0,0.0,0.0,0.0,0.0,0.0,-0.10774227976799011,0.026748644188046455,0.32644540071487427,0.0,0.0,0.0,0.0,0.0,0.0,0.0,0.0,0.0,0.33384618163108826,0.6317949295043945,9.067692756652832,0.0,0.0,0.0,0.0,0.0,0.0,0.0,0.0,0.0
1646351293.5421917,7797,1646351293,541829504,,0.0,0.0,0.0,0.0,0.0,0.0,0.0,0.0,0.0,0.0,0.0,0.0,0.0,-0.12798230350017548,0.029944438487291336,0.303009569644928,0.0,0.0,0.0,0.0,0.0,0.0,0.0,0.0,0.0,0.1148717999458313,0.3805128335952759,9.755127906799316,0.0,0.0,0.0,0.0,0.0,0.0,0.0,0.0,0.0
1646351293.54637,7798,1646351293,544070181,,0.0,0.0,0.0,0.0,0.0,0.0,0.0,0.0,0.0,0.0,0.0,0.0,0.0,-0.09176331013441086,0.020357057452201843,0.31792327761650085,0.0,0.0,0.0,0.0,0.0,0.0,0.0,0.0,0.0,-0.09333333373069763,-0.3643589913845062,9.530769348144531,0.0,0.0,0.0,0.0,0.0,0.0,0.0,0.0,0.0
1646351293.5466666,7799,1646351293,546287642,,0.0,0.0,0.0,0.0,0.0,0.0,0.0,0.0,0.0,0.0,0.0,0.0,0.0,-0.08750224858522415,0.031009702011942863,0.3062053620815277,0.0,0.0,0.0,0.0,0.0,0.0,0.0,0.0,0.0,0.25846153497695923,0.18307693302631378,9.374615669250488,0.0,0.0,0.0,0.0,0.0,0.0,0.0,0.0,0.0
1646351293.5490983,7800,1646351293,548612307,,0.0,0.0,0.0,0.0,0.0,0.0,0.0,0.0,0.0,0.0,0.0,0.0,0.0,-0.10667701065540314,0.026748644188046455,0.3339022397994995,0.0,0.0,0.0,0.0,0.0,0.0,0.0,0.0,0.0,-0.28717949986457825,0.29615384340286255,9.704872131347656,0.0,0.0,0.0,0.0,0.0,0.0,0.0,0.0,0.0
1646351293.5513728,7801,1646351293,550957336,,0.0,0.0,0.0,0.0,0.0,0.0,0.0,0.0,0.0,0.0,0.0,0.0,0.0,-0.0715232864022255,0.025683380663394928,0.3243148624897003,0.0,0.0,0.0,0.0,0.0,0.0,0.0,0.0,0.0,0.4217948913574219,0.6820513010025024,9.205897331237793,0.0,0.0,0.0,0.0,0.0,0.0,0.0,0.0,0.0
1646351293.5540135,7802,1646351293,553192810,,0.0,0.0,0.0,0.0,0.0,0.0,0.0,0.0,0.0,0.0,0.0,0.0,0.0,-0.05874011293053627,0.02461811527609825,0.31366223096847534,0.0,0.0,0.0,0.0,0.0,0.0,0.0,0.0,0.0,0.3069230914115906,0.18487180769443512,9.383589744567871,0.0,0.0,0.0,0.0,0.0,0.0,0.0,0.0,0.0
1646351293.5558407,7803,1646351293,555422443,,0.0,0.0,0.0,0.0,0.0,0.0,0.0,0.0,0.0,0.0,0.0,0.0,0.0,-0.04702220484614372,0.04911919683218002,0.35094648599624634,0.0,0.0,0.0,0.0,0.0,0.0,0.0,0.0,0.0,0.16153846681118011,0.07717949151992798,9.119743347167969,0.0,0.0,0.0,0.0,0.0,0.0,0.0,0.0,0.0
1646351293.5581365,7804,1646351293,557671331,,0.0,0.0,0.0,0.0,0.0,0.0,0.0,0.0,0.0,0.0,0.0,0.0,0.0,-0.02997797727584839,0.027813909575343132,0.3381633162498474,0.0,0.0,0.0,0.0,0.0,0.0,0.0,0.0,0.0,0.5366666913032532,0.20820513367652893,8.59743595123291,0.0,0.0,0.0,0.0,0.0,0.0,0.0,0.0,0.0
1646351293.560251,7805,1646351293,559889482,,0.0,0.0,0.0,0.0,0.0,0.0,0.0,0.0,0.0,0.0,0.0,0.0,0.0,0.001979956403374672,0.03207496553659439,0.33709803223609924,0.0,0.0,0.0,0.0,0.0,0.0,0.0,0.0,0.0,0.4451282024383545,0.08076923340559006,9.00487232208252,0.0,0.0,0.0,0.0,0.0,0.0,0.0,0.0,0.0
1646351293.562463,7806,1646351293,562133102,,0.0,0.0,0.0,0.0,0.0,0.0,0.0,0.0,0.0,0.0,0.0,0.0,0.0,-0.0012158364988863468,0.04272760823369026,0.3125969469547272,0.0,0.0,0.0,0.0,0.0,0.0,0.0,0.0,0.0,0.1058974415063858,0.7610256671905518,9.581025123596191,0.0,0.0,0.0,0.0,0.0,0.0,0.0,0.0,0.0
1646351293.5659842,7807,1646351293,564356185,,0.0,0.0,0.0,0.0,0.0,0.0,0.0,0.0,0.0,0.0,0.0,0.0,0.0,0.023285245522856712,0.03953181207180023,0.3392285704612732,0.0,0.0,0.0,0.0,0.0,0.0,0.0,0.0,0.0,-0.3625641167163849,0.4056410491466522,9.220256805419922,0.0,0.0,0.0,0.0,0.0,0.0,0.0,0.0,0.0
1646351293.5669756,7808,1646351293,566616638,,0.0,0.0,0.0,0.0,0.0,0.0,0.0,0.0,0.0,0.0,0.0,0.0,0.0,0.03180735930800438,0.013965470716357231,0.32751065492630005,0.0,0.0,0.0,0.0,0.0,0.0,0.0,0.0,0.0,-0.17769230902194977,0.4415384829044342,9.439230918884277,0.0,0.0,0.0,0.0,0.0,0.0,0.0,0.0,0.0
1646351293.5695124,7809,1646351293,568857433,,0.0,0.0,0.0,0.0,0.0,0.0,0.0,0.0,0.0,0.0,0.0,0.0,0.0,0.04246000573039055,0.052314989268779755,0.3339022397994995,0.0,0.0,0.0,0.0,0.0,0.0,0.0,0.0,0.0,-0.3123077154159546,-0.014358974993228912,9.913077354431152,0.0,0.0,0.0,0.0,0.0,0.0,0.0,0.0,0.0
1646351293.5714881,7810,1646351293,571090686,,0.0,0.0,0.0,0.0,0.0,0.0,0.0,0.0,0.0,0.0,0.0,0.0,0.0,0.07228740304708481,0.011834941804409027,0.3573380410671234,0.0,0.0,0.0,0.0,0.0,0.0,0.0,0.0,0.0,0.1884615421295166,0.025128206238150597,9.405128479003906,0.0,0.0,0.0,0.0,0.0,0.0,0.0,0.0,0.0
1646351293.5737667,7811,1646351293,573309782,,0.0,0.0,0.0,0.0,0.0,0.0,0.0,0.0,0.0,0.0,0.0,0.0,0.0,0.11383271217346191,-0.010535608977079391,0.3392285704612732,0.0,0.0,0.0,0.0,0.0,0.0,0.0,0.0,0.0,0.23333333432674408,0.3302564322948456,8.839743614196777,0.0,0.0,0.0,0.0,0.0,0.0,0.0,0.0,0.0
1646351293.5759451,7812,1646351293,575533405,,0.0,0.0,0.0,0.0,0.0,0.0,0.0,0.0,0.0,0.0,0.0,0.0,0.0,0.08507058769464493,0.015030735172331333,0.3669254183769226,0.0,0.0,0.0,0.0,0.0,0.0,0.0,0.0,0.0,0.27282050251960754,0.34641027450561523,8.960000038146973,0.0,0.0,0.0,0.0,0.0,0.0,0.0,0.0,0.0
1646351293.578191,7813,1646351293,577770190,,0.0,0.0,0.0,0.0,0.0,0.0,0.0,0.0,0.0,0.0,0.0,0.0,0.0,0.1425948441028595,-0.027579842135310173,0.3573380410671234,0.0,0.0,0.0,0.0,0.0,0.0,0.0,0.0,0.0,0.026923077180981636,-0.02153846248984337,9.498461723327637,0.0,0.0,0.0,0.0,0.0,0.0,0.0,0.0,0.0
1646351293.5804646,7814,1646351293,580036525,,0.0,0.0,0.0,0.0,0.0,0.0,0.0,0.0,0.0,0.0,0.0,0.0,0.0,0.12555061280727386,-0.008405081927776337,0.3765127956867218,0.0,0.0,0.0,0.0,0.0,0.0,0.0,0.0,0.0,-0.3643589913845062,-0.2028205245733261,9.65999984741211,0.0,0.0,0.0,0.0,0.0,0.0,0.0,0.0,0.0
1646351293.583931,7815,1646351293,582297358,,0.0,0.0,0.0,0.0,0.0,0.0,0.0,0.0,0.0,0.0,0.0,0.0,0.0,0.1468559205532074,-0.027579842135310173,0.3584032952785492,0.0,0.0,0.0,0.0,0.0,0.0,0.0,0.0,0.0,-0.12025640904903412,0.2476923167705536,9.573845863342285,0.0,0.0,0.0,0.0,0.0,0.0,0.0,0.0,0.0
1646351293.5852377,7816,1646351293,584507564,,0.0,0.0,0.0,0.0,0.0,0.0,0.0,0.0,0.0,0.0,0.0,0.0,0.0,0.14792118966579437,-0.009470346383750439,0.3807738423347473,0.0,0.0,0.0,0.0,0.0,0.0,0.0,0.0,0.0,0.4738461673259735,-0.6317949295043945,9.279486656188965,0.0,0.0,0.0,0.0,0.0,0.0,0.0,0.0,0.0
1646351293.5871701,7817,1646351293,586799677,,0.0,0.0,0.0,0.0,0.0,0.0,0.0,0.0,0.0,0.0,0.0,0.0,0.0,0.12235482782125473,-0.0147966668009758,0.3956875503063202,0.0,0.0,0.0,0.0,0.0,0.0,0.0,0.0,0.0,0.17230769991874695,0.1974359005689621,9.584615707397461,0.0,0.0,0.0,0.0,0.0,0.0,0.0,0.0,0.0
1646351293.5894706,7818,1646351293,589074293,,0.0,0.0,0.0,0.0,0.0,0.0,0.0,0.0,0.0,0.0,0.0,0.0,0.0,0.12981167435646057,-0.04781986027956009,0.36586013436317444,0.0,0.0,0.0,0.0,0.0,0.0,0.0,0.0,0.0,-0.3410256505012512,0.7969231009483337,9.835898399353027,0.0,0.0,0.0,0.0,0.0,0.0,0.0,0.0,0.0
1646351293.5916939,7819,1646351293,591327880,,0.0,0.0,0.0,0.0,0.0,0.0,0.0,0.0,0.0,0.0,0.0,0.0,0.0,0.12235482782125473,0.006508619990199804,0.40634018182754517,0.0,0.0,0.0,0.0,0.0,0.0,0.0,0.0,0.0,-0.7520512938499451,-1.1235897541046143,10.674102783203125,0.0,0.0,0.0,0.0,0.0,0.0,0.0,0.0,0.0
1646351293.59408,7820,1646351293,593641767,,0.0,0.0,0.0,0.0,0.0,0.0,0.0,0.0,0.0,0.0,0.0,0.0,0.0,0.1564432978630066,-0.04781986027956009,0.3775780498981476,0.0,0.0,0.0,0.0,0.0,0.0,0.0,0.0,0.0,-1.4017949104309082,-0.7592307925224304,10.792563438415527,0.0,0.0,0.0,0.0,0.0,0.0,0.0,0.0,0.0
1646351293.5961378,7821,1646351293,595855629,,0.0,0.0,0.0,0.0,0.0,0.0,0.0,0.0,0.0,0.0,0.0,0.0,0.0,0.0680263489484787,-0.03290615975856781,0.4042096734046936,0.0,0.0,0.0,0.0,0.0,0.0,0.0,0.0,0.0,0.5420513153076172,0.2620512843132019,11.774359703063965,0.0,0.0,0.0,0.0,0.0,0.0,0.0,0.0,0.0
1646351293.5985851,7822,1646351293,598109764,,0.0,0.0,0.0,0.0,0.0,0.0,0.0,0.0,0.0,0.0,0.0,0.0,0.0,0.06483055651187897,-0.026514576748013496,0.38396963477134705,0.0,0.0,0.0,0.0,0.0,0.0,0.0,0.0,0.0,0.19384616613388062,1.0105128288269043,9.20230770111084,0.0,0.0,0.0,0.0,0.0,0.0,0.0,0.0,0.0
1646351293.6009712,7823,1646351293,600455265,,0.0,0.0,0.0,0.0,0.0,0.0,0.0,0.0,0.0,0.0,0.0,0.0,0.0,0.07228740304708481,-0.038232482969760895,0.39675280451774597,0.0,0.0,0.0,0.0,0.0,0.0,0.0,0.0,0.0,1.2994872331619263,-0.8310256600379944,10.467693328857422,0.0,0.0,0.0,0.0,0.0,0.0,0.0,0.0,0.0
1646351293.6030939,7824,1646351293,602776632,,0.0,0.0,0.0,0.0,0.0,0.0,0.0,0.0,0.0,0.0,0.0,0.0,0.0,0.0009146920638158917,0.00011703448399202898,0.4276454746723175,0.0,0.0,0.0,0.0,0.0,0.0,0.0,0.0,0.0,-0.917179524898529,0.31948718428611755,9.040769577026367,0.0,0.0,0.0,0.0,0.0,0.0,0.0,0.0,0.0
1646351293.6053421,7825,1646351293,605040155,,0.0,0.0,0.0,0.0,0.0,0.0,0.0,0.0,0.0,0.0,0.0,0.0,0.0,-0.020390594378113747,-0.016927195712924004,0.3914265036582947,0.0,0.0,0.0,0.0,0.0,0.0,0.0,0.0,0.0,-0.08076923340559006,0.6210256814956665,11.34538459777832,0.0,0.0,0.0,0.0,0.0,0.0,0.0,0.0,0.0
1646351293.6084156,7826,1646351293,607319494,,0.0,0.0,0.0,0.0,0.0,0.0,0.0,0.0,0.0,0.0,0.0,0.0,0.0,-0.008672687225043774,-0.027579842135310173,0.4042096734046936,0.0,0.0,0.0,0.0,0.0,0.0,0.0,0.0,0.0,0.18666666746139526,-0.22615385055541992,9.661794662475586,0.0,0.0,0.0,0.0,0.0,0.0,0.0,0.0,0.0
1646351293.609858,7827,1646351293,609560304,,0.0,0.0,0.0,0.0,0.0,0.0,0.0,0.0,0.0,0.0,0.0,0.0,0.0,-0.0342390350997448,-0.008405081927776337,0.3871654272079468,0.0,0.0,0.0,0.0,0.0,0.0,0.0,0.0,0.0,0.6066666841506958,-0.44871795177459717,10.358205795288086,0.0,0.0,0.0,0.0,0.0,0.0,0.0,0.0,0.0
1646351293.6122124,7828,1646351293,611781228,,0.0,0.0,0.0,0.0,0.0,0.0,0.0,0.0,0.0,0.0,0.0,0.0,0.0,-0.03317376971244812,-0.009470346383750439,0.3946222960948944,0.0,0.0,0.0,0.0,0.0,0.0,0.0,0.0,0.0,-0.5043590068817139,0.2674359083175659,10.20025634765625,0.0,0.0,0.0,0.0,0.0,0.0,0.0,0.0,0.0
1646351293.6143649,7829,1646351293,614041985,,0.0,0.0,0.0,0.0,0.0,0.0,0.0,0.0,0.0,0.0,0.0,0.0,0.0,-0.06300117075443268,-0.009470346383750439,0.37331700325012207,0.0,0.0,0.0,0.0,0.0,0.0,0.0,0.0,0.0,0.3302564322948456,1.2600001096725464,9.880769729614258,0.0,0.0,0.0,0.0,0.0,0.0,0.0,0.0,0.0
1646351293.6167097,7830,1646351293,616270050,,0.0,0.0,0.0,0.0,0.0,0.0,0.0,0.0,0.0,0.0,0.0,0.0,0.0,-0.02997797727584839,-0.0424935407936573,0.40634018182754517,0.0,0.0,0.0,0.0,0.0,0.0,0.0,0.0,0.0,0.2674359083175659,-0.19025641679763794,9.475128173828125,0.0,0.0,0.0,0.0,0.0,0.0,0.0,0.0,0.0
1646351293.6190948,7831,1646351293,618611443,,0.0,0.0,0.0,0.0,0.0,0.0,0.0,0.0,0.0,0.0,0.0,0.0,0.0,-0.06939276307821274,-0.01799245923757553,0.3999485969543457,0.0,0.0,0.0,0.0,0.0,0.0,0.0,0.0,0.0,0.4361538589000702,0.06282051652669907,10.934358596801758,0.0,0.0,0.0,0.0,0.0,0.0,0.0,0.0,0.0
1646351293.6216583,7832,1646351293,620825562,,0.0,0.0,0.0,0.0,0.0,0.0,0.0,0.0,0.0,0.0,0.0,0.0,0.0,-0.10880754142999649,0.00544335599988699,0.4287107586860657,0.0,0.0,0.0,0.0,0.0,0.0,0.0,0.0,0.0,-0.3571794927120209,0.06282051652669907,10.072820663452148,0.0,0.0,0.0,0.0,0.0,0.0,0.0,0.0,0.0
1646351293.6235404,7833,1646351293,623104783,,0.0,0.0,0.0,0.0,0.0,0.0,0.0,0.0,0.0,0.0,0.0,0.0,0.0,-0.09708963334560394,-0.05740724131464958,0.3999485969543457,0.0,0.0,0.0,0.0,0.0,0.0,0.0,0.0,0.0,-0.3392307758331299,0.3141025900840759,10.184102058410645,0.0,0.0,0.0,0.0,0.0,0.0,0.0,0.0,0.0
1646351293.625959,7834,1646351293,625311263,,0.0,0.0,0.0,0.0,0.0,0.0,0.0,0.0,0.0,0.0,0.0,0.0,0.0,-0.08643698692321777,-0.019057724624872208,0.3999485969543457,0.0,0.0,0.0,0.0,0.0,0.0,0.0,0.0,0.0,-0.08076923340559006,0.5061538815498352,9.756922721862793,0.0,0.0,0.0,0.0,0.0,0.0,0.0,0.0,0.0
1646351293.6279087,7835,1646351293,627559189,,0.0,0.0,0.0,0.0,0.0,0.0,0.0,0.0,0.0,0.0,0.0,0.0,0.0,-0.12904757261276245,-0.03184089809656143,0.41273176670074463,0.0,0.0,0.0,0.0,0.0,0.0,0.0,0.0,0.0,-0.4451282024383545,0.014358974993228912,10.645384788513184,0.0,0.0,0.0,0.0,0.0,0.0,0.0,0.0,0.0
1646351293.6301522,7836,1646351293,629789138,,0.0,0.0,0.0,0.0,0.0,0.0,0.0,0.0,0.0,0.0,0.0,0.0,0.0,-0.13437388837337494,-0.03184089809656143,0.4042096734046936,0.0,0.0,0.0,0.0,0.0,0.0,0.0,0.0,0.0,-0.5833333134651184,-0.023333333432674408,10.135641098022461,0.0,0.0,0.0,0.0,0.0,0.0,0.0,0.0,0.0
1646351293.6323252,7837,1646351293,631992068,,0.0,0.0,0.0,0.0,0.0,0.0,0.0,0.0,0.0,0.0,0.0,0.0,0.0,-0.12798230350017548,-0.05527671426534653,0.40314438939094543,0.0,0.0,0.0,0.0,0.0,0.0,0.0,0.0,0.0,-0.967435896396637,0.2153846174478531,10.701025009155273,0.0,0.0,0.0,0.0,0.0,0.0,0.0,0.0,0.0
1646351293.6347363,7838,1646351293,634228566,,0.0,0.0,0.0,0.0,0.0,0.0,0.0,0.0,0.0,0.0,0.0,0.0,0.0,-0.14715705811977386,-0.0659293606877327,0.4265802204608917,0.0,0.0,0.0,0.0,0.0,0.0,0.0,0.0,0.0,-0.05205128341913223,-0.2800000011920929,9.886154174804688,0.0,0.0,0.0,0.0,0.0,0.0,0.0,0.0,0.0
1646351293.6372247,7839,1646351293,636767277,,0.0,0.0,0.0,0.0,0.0,0.0,0.0,0.0,0.0,0.0,0.0,0.0,0.0,-0.15567918121814728,-0.03290615975856781,0.4084707200527191,0.0,0.0,0.0,0.0,0.0,0.0,0.0,0.0,0.0,0.19025641679763794,0.07897436618804932,10.257692337036133,0.0,0.0,0.0,0.0,0.0,0.0,0.0,0.0,0.0
1646351293.639504,7840,1646351293,639024025,,0.0,0.0,0.0,0.0,0.0,0.0,0.0,0.0,0.0,0.0,0.0,0.0,0.0,-0.16313602030277252,-0.08403884619474411,0.41699284315109253,0.0,0.0,0.0,0.0,0.0,0.0,0.0,0.0,0.0,0.31051284074783325,-0.05205128341913223,9.564871788024902,0.0,0.0,0.0,0.0,0.0,0.0,0.0,0.0,0.0
1646351293.641736,7841,1646351293,641224059,,0.0,0.0,0.0,0.0,0.0,0.0,0.0,0.0,0.0,0.0,0.0,0.0,0.0,-0.17272339761257172,-0.09149569272994995,0.4191233515739441,0.0,0.0,0.0,0.0,0.0,0.0,0.0,0.0,0.0,-0.45230770111083984,-0.07000000029802322,10.001025199890137,0.0,0.0,0.0,0.0,0.0,0.0,0.0,0.0,0.0
1646351293.6438227,7842,1646351293,643433306,,0.0,0.0,0.0,0.0,0.0,0.0,0.0,0.0,0.0,0.0,0.0,0.0,0.0,-0.1642012894153595,-0.0893651694059372,0.4191233515739441,0.0,0.0,0.0,0.0,0.0,0.0,0.0,0.0,0.0,-0.4594871997833252,-0.6120513081550598,9.94538402557373,0.0,0.0,0.0,0.0,0.0,0.0,0.0,0.0,0.0
1646351293.6461186,7843,1646351293,645701000,,0.0,0.0,0.0,0.0,0.0,0.0,0.0,0.0,0.0,0.0,0.0,0.0,0.0,-0.1876370906829834,-0.09788728505373001,0.40634018182754517,0.0,0.0,0.0,0.0,0.0,0.0,0.0,0.0,0.0,0.18487180769443512,-0.3912820518016815,9.977692604064941,0.0,0.0,0.0,0.0,0.0,0.0,0.0,0.0,0.0
1646351293.6483548,7844,1646351293,647920988,,0.0,0.0,0.0,0.0,0.0,0.0,0.0,0.0,0.0,0.0,0.0,0.0,0.0,-0.17059285938739777,-0.08190831542015076,0.4052749276161194,0.0,0.0,0.0,0.0,0.0,0.0,0.0,0.0,0.0,-0.28717949986457825,0.05564102530479431,10.435384750366211,0.0,0.0,0.0,0.0,0.0,0.0,0.0,0.0,0.0
1646351293.6520467,7845,1646351293,650141639,,0.0,0.0,0.0,0.0,0.0,0.0,0.0,0.0,0.0,0.0,0.0,0.0,0.0,-0.18018023669719696,-0.11280098557472229,0.4084707200527191,0.0,0.0,0.0,0.0,0.0,0.0,0.0,0.0,0.0,-0.30153846740722656,0.15076923370361328,9.948974609375,0.0,0.0,0.0,0.0,0.0,0.0,0.0,0.0,0.0
1646351293.6528413,7846,1646351293,652360114,,0.0,0.0,0.0,0.0,0.0,0.0,0.0,0.0,0.0,0.0,0.0,0.0,0.0,-0.14289599657058716,-0.08297357708215714,0.39249175786972046,0.0,0.0,0.0,0.0,0.0,0.0,0.0,0.0,0.0,-0.20820513367652893,-0.12025640904903412,9.509230613708496,0.0,0.0,0.0,0.0,0.0,0.0,0.0,0.0,0.0
1646351293.6549547,7847,1646351293,654556624,,0.0,0.0,0.0,0.0,0.0,0.0,0.0,0.0,0.0,0.0,0.0,0.0,0.0,-0.15141811966896057,-0.08190831542015076,0.4052749276161194,0.0,0.0,0.0,0.0,0.0,0.0,0.0,0.0,0.0,-0.8417949080467224,-0.11307692527770996,9.931025505065918,0.0,0.0,0.0,0.0,0.0,0.0,0.0,0.0,0.0
1646351293.657125,7848,1646351293,656767193,,0.0,0.0,0.0,0.0,0.0,0.0,0.0,0.0,0.0,0.0,0.0,0.0,0.0,-0.13437388837337494,-0.09682201594114304,0.39355701208114624,0.0,0.0,0.0,0.0,0.0,0.0,0.0,0.0,0.0,0.032307691872119904,-0.19564102590084076,9.327948570251465,0.0,0.0,0.0,0.0,0.0,0.0,0.0,0.0,0.0
1646351293.6593778,7849,1646351293,659035343,,0.0,0.0,0.0,0.0,0.0,0.0,0.0,0.0,0.0,0.0,0.0,0.0,0.0,-0.0896327793598175,-0.08403884619474411,0.3914265036582947,0.0,0.0,0.0,0.0,0.0,0.0,0.0,0.0,0.0,0.032307691872119904,-0.048461541533470154,9.95974349975586,0.0,0.0,0.0,0.0,0.0,0.0,0.0,0.0,0.0
1646351293.6615887,7850,1646351293,661239091,,0.0,0.0,0.0,0.0,0.0,0.0,0.0,0.0,0.0,0.0,0.0,0.0,0.0,-0.0896327793598175,-0.07232095301151276,0.42018863558769226,0.0,0.0,0.0,0.0,0.0,0.0,0.0,0.0,0.0,0.30153846740722656,0.4774359166622162,9.505640983581543,0.0,0.0,0.0,0.0,0.0,0.0,0.0,0.0,0.0
1646351293.6637764,7851,1646351293,663473425,,0.0,0.0,0.0,0.0,0.0,0.0,0.0,0.0,0.0,0.0,0.0,0.0,0.0,-0.04489167407155037,-0.05740724131464958,0.41166651248931885,0.0,0.0,0.0,0.0,0.0,0.0,0.0,0.0,0.0,0.3805128335952759,0.02153846248984337,9.069487571716309,0.0,0.0,0.0,0.0,0.0,0.0,0.0,0.0,0.0
1646351293.6661096,7852,1646351293,665729031,,0.0,0.0,0.0,0.0,0.0,0.0,0.0,0.0,0.0,0.0,0.0,0.0,0.0,-0.03636956214904785,-0.10001780837774277,0.39249175786972046,0.0,0.0,0.0,0.0,0.0,0.0,0.0,0.0,0.0,-0.22615385055541992,-0.12205128371715546,9.218461990356445,0.0,0.0,0.0,0.0,0.0,0.0,0.0,0.0,0.0
1646351293.6683133,7853,1646351293,667936952,,0.0,0.0,0.0,0.0,0.0,0.0,0.0,0.0,0.0,0.0,0.0,0.0,0.0,0.0030452206265181303,-0.0520809181034565,0.4276454746723175,0.0,0.0,0.0,0.0,0.0,0.0,0.0,0.0,0.0,-0.06102564185857773,0.17589744925498962,9.663589477539062,0.0,0.0,0.0,0.0,0.0,0.0,0.0,0.0,0.0
1646351293.670535,7854,1646351293,670222067,,0.0,0.0,0.0,0.0,0.0,0.0,0.0,0.0,0.0,0.0,0.0,0.0,0.0,0.01156733650714159,-0.0520809181034565,0.4084707200527191,0.0,0.0,0.0,0.0,0.0,0.0,0.0,0.0,0.0,-0.2387179583311081,-0.29076921939849854,9.805384635925293,0.0,0.0,0.0,0.0,0.0,0.0,0.0,0.0,0.0
1646351293.6728096,7855,1646351293,672529394,,0.0,0.0,0.0,0.0,0.0,0.0,0.0,0.0,0.0,0.0,0.0,0.0,0.0,0.0541779100894928,-0.06912515312433243,0.37864330410957336,0.0,0.0,0.0,0.0,0.0,0.0,0.0,0.0,0.0,-0.17230769991874695,0.12743589282035828,10.178717613220215,0.0,0.0,0.0,0.0,0.0,0.0,0.0,0.0,0.0
1646351293.6751025,7856,1646351293,674735891,,0.0,0.0,0.0,0.0,0.0,0.0,0.0,0.0,0.0,0.0,0.0,0.0,0.0,0.07548320293426514,-0.059537775814533234,0.4084707200527191,0.0,0.0,0.0,0.0,0.0,0.0,0.0,0.0,0.0,0.01974359154701233,0.5653846263885498,10.018974304199219,0.0,0.0,0.0,0.0,0.0,0.0,0.0,0.0,0.0
1646351293.6773472,7857,1646351293,676942282,,0.0,0.0,0.0,0.0,0.0,0.0,0.0,0.0,0.0,0.0,0.0,0.0,0.0,0.09785374253988266,-0.05421144887804985,0.41273176670074463,0.0,0.0,0.0,0.0,0.0,0.0,0.0,0.0,0.0,-0.05923077091574669,0.45769232511520386,10.05128288269043,0.0,0.0,0.0,0.0,0.0,0.0,0.0,0.0,0.0
1646351293.6795735,7858,1646351293,679143747,,0.0,0.0,0.0,0.0,0.0,0.0,0.0,0.0,0.0,0.0,0.0,0.0,0.0,0.11489797383546829,-0.05740724131464958,0.3892959654331207,0.0,0.0,0.0,0.0,0.0,0.0,0.0,0.0,0.0,0.048461541533470154,-0.17769230902194977,9.509230613708496,0.0,0.0,0.0,0.0,0.0,0.0,0.0,0.0,0.0
1646351293.681777,7859,1646351293,681358090,,0.0,0.0,0.0,0.0,0.0,0.0,0.0,0.0,0.0,0.0,0.0,0.0,0.0,0.1468559205532074,-0.04781986027956009,0.4095359742641449,0.0,0.0,0.0,0.0,0.0,0.0,0.0,0.0,0.0,0.07897436618804932,0.06641025841236115,9.577435493469238,0.0,0.0,0.0,0.0,0.0,0.0,0.0,0.0,0.0
1646351293.6839998,7860,1646351293,683637676,,0.0,0.0,0.0,0.0,0.0,0.0,0.0,0.0,0.0,0.0,0.0,0.0,0.0,0.15324750542640686,-0.04462406784296036,0.3914265036582947,0.0,0.0,0.0,0.0,0.0,0.0,0.0,0.0,0.0,0.21358974277973175,-0.1148717999458313,9.320769309997559,0.0,0.0,0.0,0.0,0.0,0.0,0.0,0.0,0.0
1646351293.6862717,7861,1646351293,685897418,,0.0,0.0,0.0,0.0,0.0,0.0,0.0,0.0,0.0,0.0,0.0,0.0,0.0,0.1564432978630066,-0.026514576748013496,0.40207913517951965,0.0,0.0,0.0,0.0,0.0,0.0,0.0,0.0,0.0,-0.14179487526416779,-0.25487178564071655,9.60615348815918,0.0,0.0,0.0,0.0,0.0,0.0,0.0,0.0,0.0
1646351293.6885118,7862,1646351293,688176350,,0.0,0.0,0.0,0.0,0.0,0.0,0.0,0.0,0.0,0.0,0.0,0.0,0.0,0.15963909029960632,-0.03929774835705757,0.3999485969543457,0.0,0.0,0.0,0.0,0.0,0.0,0.0,0.0,0.0,-0.19025641679763794,0.17769230902194977,10.080000877380371,0.0,0.0,0.0,0.0,0.0,0.0,0.0,0.0,0.0
1646351293.690713,7863,1646351293,690398198,,0.0,0.0,0.0,0.0,0.0,0.0,0.0,0.0,0.0,0.0,0.0,0.0,0.0,0.15005171298980713,-0.024384047836065292,0.4052749276161194,0.0,0.0,0.0,0.0,0.0,0.0,0.0,0.0,0.0,-0.01974359154701233,-0.25846153497695923,9.091026306152344,0.0,0.0,0.0,0.0,0.0,0.0,0.0,0.0,0.0
1646351293.694036,7864,1646351293,692670301,,0.0,0.0,0.0,0.0,0.0,0.0,0.0,0.0,0.0,0.0,0.0,0.0,0.0,0.15431277453899384,-0.02544931322336197,0.39675280451774597,0.0,0.0,0.0,0.0,0.0,0.0,0.0,0.0,0.0,-0.2800000011920929,0.4271794855594635,10.10692310333252,0.0,0.0,0.0,0.0,0.0,0.0,0.0,0.0,0.0
1646351293.6952057,7865,1646351293,694914138,,0.0,0.0,0.0,0.0,0.0,0.0,0.0,0.0,0.0,0.0,0.0,0.0,0.0,0.1511169821023941,-0.0009482299210503697,0.3669254183769226,0.0,0.0,0.0,0.0,0.0,0.0,0.0,0.0,0.0,-0.07897436618804932,-0.21897436678409576,9.55230712890625,0.0,0.0,0.0,0.0,0.0,0.0,0.0,0.0,0.0
1646351293.6974952,7866,1646351293,697174034,,0.0,0.0,0.0,0.0,0.0,0.0,0.0,0.0,0.0,0.0,0.0,0.0,0.0,0.13939905166625977,-0.0147966668009758,0.37970858812332153,0.0,0.0,0.0,0.0,0.0,0.0,0.0,0.0,0.0,-0.3141025900840759,-0.22615385055541992,10.062051773071289,0.0,0.0,0.0,0.0,0.0,0.0,0.0,0.0,0.0
1646351293.6998334,7867,1646351293,699388858,,0.0,0.0,0.0,0.0,0.0,0.0,0.0,0.0,0.0,0.0,0.0,0.0,0.0,0.12128955870866776,0.015030735172331333,0.38396963477134705,0.0,0.0,0.0,0.0,0.0,0.0,0.0,0.0,0.0,-0.5079486966133118,0.1561538577079773,10.205641746520996,0.0,0.0,0.0,0.0,0.0,0.0,0.0,0.0,0.0
1646351293.7019725,7868,1646351293,701598640,,0.0,0.0,0.0,0.0,0.0,0.0,0.0,0.0,0.0,0.0,0.0,0.0,0.0,0.13194219768047333,-0.012666137889027596,0.36053383350372314,0.0,0.0,0.0,0.0,0.0,0.0,0.0,0.0,0.0,-0.40205129981040955,-0.14358974993228912,10.257692337036133,0.0,0.0,0.0,0.0,0.0,0.0,0.0,0.0,0.0
1646351293.7043056,7869,1646351293,703868824,,0.0,0.0,0.0,0.0,0.0,0.0,0.0,0.0,0.0,0.0,0.0,0.0,0.0,0.1330074667930603,-0.02225351706147194,0.35094648599624634,0.0,0.0,0.0,0.0,0.0,0.0,0.0,0.0,0.0,-0.13641025125980377,0.26923078298568726,10.291794776916504,0.0,0.0,0.0,0.0,0.0,0.0,0.0,0.0,0.0
1646351293.7065823,7870,1646351293,706099475,,0.0,0.0,0.0,0.0,0.0,0.0,0.0,0.0,0.0,0.0,0.0,0.0,0.0,0.12235482782125473,0.011834941804409027,0.36053383350372314,0.0,0.0,0.0,0.0,0.0,0.0,0.0,0.0,0.0,0.044871795922517776,-0.38410258293151855,9.270512580871582,0.0,0.0,0.0,0.0,0.0,0.0,0.0,0.0,0.0
1646351293.7087574,7871,1646351293,708371728,,0.0,0.0,0.0,0.0,0.0,0.0,0.0,0.0,0.0,0.0,0.0,0.0,0.0,0.1053105965256691,-0.019057724624872208,0.32857590913772583,0.0,0.0,0.0,0.0,0.0,0.0,0.0,0.0,0.0,0.1238461583852768,-0.07717949151992798,9.9884614944458,0.0,0.0,0.0,0.0,0.0,0.0,0.0,0.0,0.0
1646351293.7109032,7872,1646351293,710603930,,0.0,0.0,0.0,0.0,0.0,0.0,0.0,0.0,0.0,0.0,0.0,0.0,0.0,0.08826638013124466,0.010769677348434925,0.35520750284194946,0.0,0.0,0.0,0.0,0.0,0.0,0.0,0.0,0.0,-0.2710256576538086,-0.25128206610679626,10.069230079650879,0.0,0.0,0.0,0.0,0.0,0.0,0.0,0.0,0.0
1646351293.713328,7873,1646351293,712981648,,0.0,0.0,0.0,0.0,0.0,0.0,0.0,0.0,0.0,0.0,0.0,0.0,0.0,0.040329474955797195,-0.010535608977079391,0.3349674940109253,0.0,0.0,0.0,0.0,0.0,0.0,0.0,0.0,0.0,-0.27282050251960754,-0.13461539149284363,9.674358367919922,0.0,0.0,0.0,0.0,0.0,0.0,0.0,0.0,0.0
1646351293.7156534,7874,1646351293,715183943,,0.0,0.0,0.0,0.0,0.0,0.0,0.0,0.0,0.0,0.0,0.0,0.0,0.0,0.07761373370885849,-0.006274553015828133,0.31366223096847534,0.0,0.0,0.0,0.0,0.0,0.0,0.0,0.0,0.0,-0.4235897660255432,0.32487180829048157,10.119487762451172,0.0,0.0,0.0,0.0,0.0,0.0,0.0,0.0,0.0
1646351293.717697,7875,1646351293,717389723,,0.0,0.0,0.0,0.0,0.0,0.0,0.0,0.0,0.0,0.0,0.0,0.0,0.0,0.022219980135560036,-0.007339817471802235,0.32751065492630005,0.0,0.0,0.0,0.0,0.0,0.0,0.0,0.0,0.0,-0.1651282161474228,0.07538461685180664,10.342050552368164,0.0,0.0,0.0,0.0,0.0,0.0,0.0,0.0,0.0
1646351293.719937,7876,1646351293,719602948,,0.0,0.0,0.0,0.0,0.0,0.0,0.0,0.0,0.0,0.0,0.0,0.0,0.0,0.03180735930800438,-0.0147966668009758,0.29448744654655457,0.0,0.0,0.0,0.0,0.0,0.0,0.0,0.0,0.0,-0.18666666746139526,0.26384615898132324,10.094359397888184,0.0,0.0,0.0,0.0,0.0,0.0,0.0,0.0,0.0
1646351293.722201,7877,1646351293,721879396,,0.0,0.0,0.0,0.0,0.0,0.0,0.0,0.0,0.0,0.0,0.0,0.0,0.0,0.02435050904750824,-0.024384047836065292,0.2976832389831543,0.0,0.0,0.0,0.0,0.0,0.0,0.0,0.0,0.0,0.11666666716337204,-0.29076921939849854,9.728204727172852,0.0,0.0,0.0,0.0,0.0,0.0,0.0,0.0,0.0
1646351293.724507,7878,1646351293,724101418,,0.0,0.0,0.0,0.0,0.0,0.0,0.0,0.0,0.0,0.0,0.0,0.0,0.0,-0.020390594378113747,-0.008405081927776337,0.2966179847717285,0.0,0.0,0.0,0.0,0.0,0.0,0.0,0.0,0.0,-0.1884615421295166,0.25846153497695923,10.05128288269043,0.0,0.0,0.0,0.0,0.0,0.0,0.0,0.0,0.0
1646351293.7268443,7879,1646351293,726411998,,0.0,0.0,0.0,0.0,0.0,0.0,0.0,0.0,0.0,0.0,0.0,0.0,0.0,0.009436807595193386,0.00224756239913404,0.29555273056030273,0.0,0.0,0.0,0.0,0.0,0.0,0.0,0.0,0.0,-0.3176923394203186,-0.03948718309402466,9.936410903930664,0.0,0.0,0.0,0.0,0.0,0.0,0.0,0.0,0.0
1646351293.7291007,7880,1646351293,728686977,,0.0,0.0,0.0,0.0,0.0,0.0,0.0,0.0,0.0,0.0,0.0,0.0,0.0,-0.018260065466165543,0.010769677348434925,0.29555273056030273,0.0,0.0,0.0,0.0,0.0,0.0,0.0,0.0,0.0,-0.32487180829048157,-0.1651282161474228,9.931025505065918,0.0,0.0,0.0,0.0,0.0,0.0,0.0,0.0,0.0
1646351293.7314558,7881,1646351293,730983379,,0.0,0.0,0.0,0.0,0.0,0.0,0.0,0.0,0.0,0.0,0.0,0.0,0.0,-0.008672687225043774,-0.0020134944934397936,0.2561379373073578,0.0,0.0,0.0,0.0,0.0,0.0,0.0,0.0,0.0,0.04307692497968674,0.023333333432674408,9.624102592468262,0.0,0.0,0.0,0.0,0.0,0.0,0.0,0.0,0.0
1646351293.7337916,7882,1646351293,733264457,,0.0,0.0,0.0,0.0,0.0,0.0,0.0,0.0,0.0,0.0,0.0,0.0,0.0,-0.012933745980262756,-0.010535608977079391,0.2699863910675049,0.0,0.0,0.0,0.0,0.0,0.0,0.0,0.0,0.0,-0.032307691872119904,-0.3571794927120209,8.977948188781738,0.0,0.0,0.0,0.0,0.0,0.0,0.0,0.0,0.0
1646351293.737399,7883,1646351293,735590675,,0.0,0.0,0.0,0.0,0.0,0.0,0.0,0.0,0.0,0.0,0.0,0.0,0.0,-0.02678218111395836,0.00224756239913404,0.23163685202598572,0.0,0.0,0.0,0.0,0.0,0.0,0.0,0.0,0.0,-0.00897435937076807,-0.09512820839881897,9.028204917907715,0.0,0.0,0.0,0.0,0.0,0.0,0.0,0.0,0.0
1646351293.7381845,7884,1646351293,737829826,,0.0,0.0,0.0,0.0,0.0,0.0,0.0,0.0,0.0,0.0,0.0,0.0,0.0,-0.04382640868425369,0.008639149367809296,0.23057159781455994,0.0,0.0,0.0,0.0,0.0,0.0,0.0,0.0,0.0,-0.032307691872119904,0.00897435937076807,9.663589477539062,0.0,0.0,0.0,0.0,0.0,0.0,0.0,0.0,0.0
1646351293.7403738,7885,1646351293,740035556,,0.0,0.0,0.0,0.0,0.0,0.0,0.0,0.0,0.0,0.0,0.0,0.0,0.0,-0.04063061624765396,-0.010535608977079391,0.20820103585720062,0.0,0.0,0.0,0.0,0.0,0.0,0.0,0.0,0.0,-0.1148717999458313,0.44871795177459717,9.826923370361328,0.0,0.0,0.0,0.0,0.0,0.0,0.0,0.0,0.0
1646351293.7423995,7886,1646351293,742233188,,0.0,0.0,0.0,0.0,0.0,0.0,0.0,0.0,0.0,0.0,0.0,0.0,0.0,-0.045956939458847046,-0.0020134944934397936,0.21033157408237457,0.0,0.0,0.0,0.0,0.0,0.0,0.0,0.0,0.0,-0.3212820589542389,-0.14538460969924927,9.787436485290527,0.0,0.0,0.0,0.0,0.0,0.0,0.0,0.0,0.0
1646351293.744732,7887,1646351293,744417876,,0.0,0.0,0.0,0.0,0.0,0.0,0.0,0.0,0.0,0.0,0.0,0.0,0.0,-0.04169588163495064,-0.004144023172557354,0.1954178661108017,0.0,0.0,0.0,0.0,0.0,0.0,0.0,0.0,0.0,0.07897436618804932,0.06282051652669907,9.60076904296875,0.0,0.0,0.0,0.0,0.0,0.0,0.0,0.0,0.0
1646351293.7469363,7888,1646351293,746693862,,0.0,0.0,0.0,0.0,0.0,0.0,0.0,0.0,0.0,0.0,0.0,0.0,0.0,-0.04489167407155037,0.004378091543912888,0.15919889509677887,0.0,0.0,0.0,0.0,0.0,0.0,0.0,0.0,0.0,-0.26923078298568726,-0.05384615436196327,9.722820281982422,0.0,0.0,0.0,0.0,0.0,0.0,0.0,0.0,0.0
1646351293.7493722,7889,1646351293,748940307,,0.0,0.0,0.0,0.0,0.0,0.0,0.0,0.0,0.0,0.0,0.0,0.0,0.0,-0.05554432049393654,0.009704413823783398,0.19222207367420197,0.0,0.0,0.0,0.0,0.0,0.0,0.0,0.0,0.0,-0.2710256576538086,-0.37512820959091187,8.834359169006348,0.0,0.0,0.0,0.0,0.0,0.0,0.0,0.0,0.0
1646351293.7514634,7890,1646351293,751165227,,0.0,0.0,0.0,0.0,0.0,0.0,0.0,0.0,0.0,0.0,0.0,0.0,0.0,-0.028912710025906563,0.00011703448399202898,0.11765356361865997,0.0,0.0,0.0,0.0,0.0,0.0,0.0,0.0,0.0,-0.19205129146575928,-0.05025641247630119,9.19333267211914,0.0,0.0,0.0,0.0,0.0,0.0,0.0,0.0,0.0
1646351293.7536407,7891,1646351293,753371212,,0.0,0.0,0.0,0.0,0.0,0.0,0.0,0.0,0.0,0.0,0.0,0.0,0.0,-0.04063061624765396,0.027813909575343132,0.1581336259841919,0.0,0.0,0.0,0.0,0.0,0.0,0.0,0.0,0.0,-0.22256410121917725,-0.4451282024383545,9.428462028503418,0.0,0.0,0.0,0.0,0.0,0.0,0.0,0.0,0.0
1646351293.7559223,7892,1646351293,755589558,,0.0,0.0,0.0,0.0,0.0,0.0,0.0,0.0,0.0,0.0,0.0,0.0,0.0,-0.039565350860357285,0.02142232283949852,0.15706835687160492,0.0,0.0,0.0,0.0,0.0,0.0,0.0,0.0,0.0,-0.0412820540368557,-0.11307692527770996,9.563076972961426,0.0,0.0,0.0,0.0,0.0,0.0,0.0,0.0,0.0
1646351293.7581356,7893,1646351293,757801181,,0.0,0.0,0.0,0.0,0.0,0.0,0.0,0.0,0.0,0.0,0.0,0.0,0.0,-0.038500092923641205,0.025683380663394928,0.10167459398508072,0.0,0.0,0.0,0.0,0.0,0.0,0.0,0.0,0.0,-0.2441025674343109,-0.2530769407749176,9.493077278137207,0.0,0.0,0.0,0.0,0.0,0.0,0.0,0.0,0.0
1646351293.7606065,7894,1646351293,760103315,,0.0,0.0,0.0,0.0,0.0,0.0,0.0,0.0,0.0,0.0,0.0,0.0,0.0,-0.03317376971244812,0.02887917309999466,0.11232724040746689,0.0,0.0,0.0,0.0,0.0,0.0,0.0,0.0,0.0,-0.1058974415063858,-0.49000000953674316,9.239999771118164,0.0,0.0,0.0,0.0,0.0,0.0,0.0,0.0,0.0
1646351293.7626882,7895,1646351293,762347971,,0.0,0.0,0.0,0.0,0.0,0.0,0.0,0.0,0.0,0.0,0.0,0.0,0.0,-0.04382640868425369,0.02887917309999466,0.08569564670324326,0.0,0.0,0.0,0.0,0.0,0.0,0.0,0.0,0.0,-0.21358974277973175,-0.17230769991874695,9.677948951721191,0.0,0.0,0.0,0.0,0.0,0.0,0.0,0.0,0.0
1646351293.7651932,7896,1646351293,764655744,,0.0,0.0,0.0,0.0,0.0,0.0,0.0,0.0,0.0,0.0,0.0,0.0,0.0,-0.02997797727584839,0.03953181207180023,0.07504300028085709,0.0,0.0,0.0,0.0,0.0,0.0,0.0,0.0,0.0,0.048461541533470154,-0.4056410491466522,9.401537895202637,0.0,0.0,0.0,0.0,0.0,0.0,0.0,0.0,0.0
1646351293.7673404,7897,1646351293,766933050,,0.0,0.0,0.0,0.0,0.0,0.0,0.0,0.0,0.0,0.0,0.0,0.0,0.0,-0.053413789719343185,0.03953181207180023,0.07397773116827011,0.0,0.0,0.0,0.0,0.0,0.0,0.0,0.0,0.0,-0.21897436678409576,-0.030512820929288864,10.09794807434082,0.0,0.0,0.0,0.0,0.0,0.0,0.0,0.0,0.0
1646351293.7694955,7898,1646351293,769180934,,0.0,0.0,0.0,0.0,0.0,0.0,0.0,0.0,0.0,0.0,0.0,0.0,0.0,-0.057674847543239594,0.029944438487291336,0.06652087718248367,0.0,0.0,0.0,0.0,0.0,0.0,0.0,0.0,0.0,-0.3266666829586029,-0.42000001668930054,9.91128158569336,0.0,0.0,0.0,0.0,0.0,0.0,0.0,0.0,0.0
1646351293.7717764,7899,1646351293,771438185,,0.0,0.0,0.0,0.0,0.0,0.0,0.0,0.0,0.0,0.0,0.0,0.0,0.0,-0.05128326267004013,0.04485813528299332,0.04095453768968582,0.0,0.0,0.0,0.0,0.0,0.0,0.0,0.0,0.0,-0.21000000834465027,-0.14897435903549194,9.730000495910645,0.0,0.0,0.0,0.0,0.0,0.0,0.0,0.0,0.0
1646351293.7741804,7900,1646351293,773720317,,0.0,0.0,0.0,0.0,0.0,0.0,0.0,0.0,0.0,0.0,0.0,0.0,0.0,-0.07684960961341858,0.056576043367385864,0.0036702812649309635,0.0,0.0,0.0,0.0,0.0,0.0,0.0,0.0,0.0,-0.19564102590084076,-0.1794871836900711,9.769487380981445,0.0,0.0,0.0,0.0,0.0,0.0,0.0,0.0,0.0
1646351293.7762144,7901,1646351293,775952477,,0.0,0.0,0.0,0.0,0.0,0.0,0.0,0.0,0.0,0.0,0.0,0.0,0.0,-0.057674847543239594,0.004378091543912888,0.012192396447062492,0.0,0.0,0.0,0.0,0.0,0.0,0.0,0.0,0.0,-0.06102564185857773,-0.4971795082092285,9.320769309997559,0.0,0.0,0.0,0.0,0.0,0.0,0.0,0.0,0.0
1646351293.7795455,7902,1646351293,778203780,,0.0,0.0,0.0,0.0,0.0,0.0,0.0,0.0,0.0,0.0,0.0,0.0,0.0,-0.039565350860357285,0.03953181207180023,-0.012308684177696705,0.0,0.0,0.0,0.0,0.0,0.0,0.0,0.0,0.0,0.025128206238150597,-0.30512821674346924,9.579231262207031,0.0,0.0,0.0,0.0,0.0,0.0,0.0,0.0,0.0
1646351293.781162,7903,1646351293,780429237,,0.0,0.0,0.0,0.0,0.0,0.0,0.0,0.0,0.0,0.0,0.0,0.0,0.0,-0.04702220484614372,0.02142232283949852,0.0026050168089568615,0.0,0.0,0.0,0.0,0.0,0.0,0.0,0.0,0.0,-0.11846154183149338,-0.22435897588729858,9.68871784210205,0.0,0.0,0.0,0.0,0.0,0.0,0.0,0.0,0.0
1646351293.7830594,7904,1646351293,782680061,,0.0,0.0,0.0,0.0,0.0,0.0,0.0,0.0,0.0,0.0,0.0,0.0,0.0,-0.031043240800499916,0.019291793927550316,-0.024026591330766678,0.0,0.0,0.0,0.0,0.0,0.0,0.0,0.0,0.0,-0.03589743748307228,-0.1651282161474228,10.555641174316406,0.0,0.0,0.0,0.0,0.0,0.0,0.0,0.0,0.0
1646351293.7853632,7905,1646351293,784949917,,0.0,0.0,0.0,0.0,0.0,0.0,0.0,0.0,0.0,0.0,0.0,0.0,0.0,-0.020390594378113747,0.029944438487291336,-0.035744503140449524,0.0,0.0,0.0,0.0,0.0,0.0,0.0,0.0,0.0,0.11846154183149338,-0.16153846681118011,9.573845863342285,0.0,0.0,0.0,0.0,0.0,0.0,0.0,0.0,0.0
1646351293.7875893,7906,1646351293,787209214,,0.0,0.0,0.0,0.0,0.0,0.0,0.0,0.0,0.0,0.0,0.0,0.0,0.0,-0.018260065466165543,-0.02225351706147194,-0.05491925776004791,0.0,0.0,0.0,0.0,0.0,0.0,0.0,0.0,0.0,-0.6766666769981384,-0.14897435903549194,10.14102554321289,0.0,0.0,0.0,0.0,0.0,0.0,0.0,0.0,0.0
1646351293.7899177,7907,1646351293,789423428,,0.0,0.0,0.0,0.0,0.0,0.0,0.0,0.0,0.0,0.0,0.0,0.0,0.0,-0.00441163033246994,0.004378091543912888,-0.05278873071074486,0.0,0.0,0.0,0.0,0.0,0.0,0.0,0.0,0.0,0.14897435903549194,-0.32487180829048157,9.642051696777344,0.0,0.0,0.0,0.0,0.0,0.0,0.0,0.0,0.0
1646351293.791992,7908,1646351293,791638355,,0.0,0.0,0.0,0.0,0.0,0.0,0.0,0.0,0.0,0.0,0.0,0.0,0.0,0.004110485315322876,0.020357057452201843,-0.05598452314734459,0.0,0.0,0.0,0.0,0.0,0.0,0.0,0.0,0.0,-0.17769230902194977,-0.23692308366298676,9.979487419128418,0.0,0.0,0.0,0.0,0.0,0.0,0.0,0.0,0.0
1646351293.7943518,7909,1646351293,793975348,,0.0,0.0,0.0,0.0,0.0,0.0,0.0,0.0,0.0,0.0,0.0,0.0,0.0,-0.002281100954860449,0.027813909575343132,-0.06557190418243408,0.0,0.0,0.0,0.0,0.0,0.0,0.0,0.0,0.0,0.01794871874153614,0.005384615622460842,9.979487419128418,0.0,0.0,0.0,0.0,0.0,0.0,0.0,0.0,0.0
1646351293.7967174,7910,1646351293,796287025,,0.0,0.0,0.0,0.0,0.0,0.0,0.0,0.0,0.0,0.0,0.0,0.0,0.0,-0.012933745980262756,0.034205492585897446,-0.06983295828104019,0.0,0.0,0.0,0.0,0.0,0.0,0.0,0.0,0.0,0.23153845965862274,-0.4630769193172455,9.54692268371582,0.0,0.0,0.0,0.0,0.0,0.0,0.0,0.0,0.0
1646351293.798941,7911,1646351293,798629786,,0.0,0.0,0.0,0.0,0.0,0.0,0.0,0.0,0.0,0.0,0.0,0.0,0.0,0.008371543139219284,0.009704413823783398,-0.09113825112581253,0.0,0.0,0.0,0.0,0.0,0.0,0.0,0.0,0.0,-0.08974359184503555,-0.4917948842048645,9.685128211975098,0.0,0.0,0.0,0.0,0.0,0.0,0.0,0.0,0.0
1646351293.801153,7912,1646351293,800839691,,0.0,0.0,0.0,0.0,0.0,0.0,0.0,0.0,0.0,0.0,0.0,0.0,0.0,0.01156733650714159,0.008639149367809296,-0.09539930522441864,0.0,0.0,0.0,0.0,0.0,0.0,0.0,0.0,0.0,0.06282051652669907,-0.32307693362236023,9.877179145812988,0.0,0.0,0.0,0.0,0.0,0.0,0.0,0.0,0.0
1646351293.8033996,7913,1646351293,803067648,,0.0,0.0,0.0,0.0,0.0,0.0,0.0,0.0,0.0,0.0,0.0,0.0,0.0,-0.018260065466165543,0.00224756239913404,-0.08048560470342636,0.0,0.0,0.0,0.0,0.0,0.0,0.0,0.0,0.0,-0.37512820959091187,-0.42000001668930054,9.9399995803833,0.0,0.0,0.0,0.0,0.0,0.0,0.0,0.0,0.0
1646351293.805765,7914,1646351293,805302316,,0.0,0.0,0.0,0.0,0.0,0.0,0.0,0.0,0.0,0.0,0.0,0.0,0.0,-0.016129538416862488,0.00544335599988699,-0.08900772035121918,0.0,0.0,0.0,0.0,0.0,0.0,0.0,0.0,0.0,-0.06282051652669907,-0.15076923370361328,10.205641746520996,0.0,0.0,0.0,0.0,0.0,0.0,0.0,0.0,0.0
1646351293.807781,7915,1646351293,807520961,,0.0,0.0,0.0,0.0,0.0,0.0,0.0,0.0,0.0,0.0,0.0,0.0,0.0,-0.032108504325151443,0.017161265015602112,-0.08581192791461945,0.0,0.0,0.0,0.0,0.0,0.0,0.0,0.0,0.0,-0.04307692497968674,-0.2656410336494446,10.230769157409668,0.0,0.0,0.0,0.0,0.0,0.0,0.0,0.0,0.0
1646351293.8101666,7916,1646351293,809809241,,0.0,0.0,0.0,0.0,0.0,0.0,0.0,0.0,0.0,0.0,0.0,0.0,0.0,0.014763129875063896,0.015030735172331333,-0.0645066350698471,0.0,0.0,0.0,0.0,0.0,0.0,0.0,0.0,0.0,0.2943589687347412,-0.5133333206176758,9.834102630615234,0.0,0.0,0.0,0.0,0.0,0.0,0.0,0.0,0.0
1646351293.8125267,7917,1646351293,812071560,,0.0,0.0,0.0,0.0,0.0,0.0,0.0,0.0,0.0,0.0,0.0,0.0,0.0,-0.02252112329006195,0.02461811527609825,-0.07942034304141998,0.0,0.0,0.0,0.0,0.0,0.0,0.0,0.0,0.0,-0.03948718309402466,-0.1561538577079773,10.049487113952637,0.0,0.0,0.0,0.0,0.0,0.0,0.0,0.0,0.0
1646351293.8148696,7918,1646351293,814445236,,0.0,0.0,0.0,0.0,0.0,0.0,0.0,0.0,0.0,0.0,0.0,0.0,0.0,-0.00441163033246994,0.010769677348434925,-0.0740940198302269,0.0,0.0,0.0,0.0,0.0,0.0,0.0,0.0,0.0,0.007179487496614456,-0.12564103305339813,10.216410636901855,0.0,0.0,0.0,0.0,0.0,0.0,0.0,0.0,0.0
1646351293.8171616,7919,1646351293,816738610,,0.0,0.0,0.0,0.0,0.0,0.0,0.0,0.0,0.0,0.0,0.0,0.0,0.0,-0.002281100954860449,0.01822652854025364,-0.058115050196647644,0.0,0.0,0.0,0.0,0.0,0.0,0.0,0.0,0.0,-0.06282051652669907,-0.07717949151992798,10.492820739746094,0.0,0.0,0.0,0.0,0.0,0.0,0.0,0.0,0.0
1646351293.8192406,7920,1646351293,818935745,,0.0,0.0,0.0,0.0,0.0,0.0,0.0,0.0,0.0,0.0,0.0,0.0,0.0,-0.00654215831309557,0.015030735172331333,-0.05598452314734459,0.0,0.0,0.0,0.0,0.0,0.0,0.0,0.0,0.0,-0.23692308366298676,-0.3123077154159546,10.347434997558594,0.0,0.0,0.0,0.0,0.0,0.0,0.0,0.0,0.0
1646351293.8221755,7921,1646351293,821222538,,0.0,0.0,0.0,0.0,0.0,0.0,0.0,0.0,0.0,0.0,0.0,0.0,0.0,0.004110485315322876,-0.006274553015828133,-0.07302875071763992,0.0,0.0,0.0,0.0,0.0,0.0,0.0,0.0,0.0,-0.11666666716337204,0.11846154183149338,10.60230827331543,0.0,0.0,0.0,0.0,0.0,0.0,0.0,0.0,0.0
1646351293.823686,7922,1646351293,823433730,,0.0,0.0,0.0,0.0,0.0,0.0,0.0,0.0,0.0,0.0,0.0,0.0,0.0,0.02008945122361183,0.019291793927550316,-0.07622455060482025,0.0,0.0,0.0,0.0,0.0,0.0,0.0,0.0,0.0,0.09692308306694031,-0.43435898423194885,9.966922760009766,0.0,0.0,0.0,0.0,0.0,0.0,0.0,0.0,0.0
1646351293.8260288,7923,1646351293,825651022,,0.0,0.0,0.0,0.0,0.0,0.0,0.0,0.0,0.0,0.0,0.0,0.0,0.0,-0.00015057262498885393,0.011834941804409027,-0.0368097685277462,0.0,0.0,0.0,0.0,0.0,0.0,0.0,0.0,0.0,0.10948718339204788,-0.3679487407207489,9.853845596313477,0.0,0.0,0.0,0.0,0.0,0.0,0.0,0.0,0.0
1646351293.828368,7924,1646351293,828001351,,0.0,0.0,0.0,0.0,0.0,0.0,0.0,0.0,0.0,0.0,0.0,0.0,0.0,-0.003346365410834551,-0.02544931322336197,-0.05278873071074486,0.0,0.0,0.0,0.0,0.0,0.0,0.0,0.0,0.0,0.09153846651315689,-0.15076923370361328,9.920256614685059,0.0,0.0,0.0,0.0,0.0,0.0,0.0,0.0,0.0
1646351293.830617,7925,1646351293,830206905,,0.0,0.0,0.0,0.0,0.0,0.0,0.0,0.0,0.0,0.0,0.0,0.0,0.0,0.013697865419089794,0.003312827320769429,-0.021896062418818474,0.0,0.0,0.0,0.0,0.0,0.0,0.0,0.0,0.0,0.07179487496614456,-0.16333334147930145,9.830512046813965,0.0,0.0,0.0,0.0,0.0,0.0,0.0,0.0,0.0
1646351293.8329585,7926,1646351293,832467112,,0.0,0.0,0.0,0.0,0.0,0.0,0.0,0.0,0.0,0.0,0.0,0.0,0.0,0.001979956403374672,-0.009470346383750439,-0.05598452314734459,0.0,0.0,0.0,0.0,0.0,0.0,0.0,0.0,0.0,-0.20461538434028625,-0.18487180769443512,10.05307674407959,0.0,0.0,0.0,0.0,0.0,0.0,0.0,0.0,0.0
1646351293.8351982,7927,1646351293,834710668,,0.0,0.0,0.0,0.0,0.0,0.0,0.0,0.0,0.0,0.0,0.0,0.0,0.0,0.01156733650714159,0.00011703448399202898,-0.025091856718063354,0.0,0.0,0.0,0.0,0.0,0.0,0.0,0.0,0.0,-0.06282051652669907,-0.4056410491466522,9.760512351989746,0.0,0.0,0.0,0.0,0.0,0.0,0.0,0.0,0.0
1646351293.8373964,7928,1646351293,836946799,,0.0,0.0,0.0,0.0,0.0,0.0,0.0,0.0,0.0,0.0,0.0,0.0,0.0,0.004110485315322876,0.007573884446173906,-0.015504478476941586,0.0,0.0,0.0,0.0,0.0,0.0,0.0,0.0,0.0,-0.1974359005689621,0.1148717999458313,10.503589630126953,0.0,0.0,0.0,0.0,0.0,0.0,0.0,0.0,0.0
1646351293.8395877,7929,1646351293,839177073,,0.0,0.0,0.0,0.0,0.0,0.0,0.0,0.0,0.0,0.0,0.0,0.0,0.0,0.001979956403374672,-0.013731402345001698,-0.028287649154663086,0.0,0.0,0.0,0.0,0.0,0.0,0.0,0.0,0.0,0.35538461804389954,-0.36076924204826355,9.263333320617676,0.0,0.0,0.0,0.0,0.0,0.0,0.0,0.0,0.0
1646351293.8417132,7930,1646351293,841370493,,0.0,0.0,0.0,0.0,0.0,0.0,0.0,0.0,0.0,0.0,0.0,0.0,0.0,0.008371543139219284,-0.009470346383750439,-0.005917098838835955,0.0,0.0,0.0,0.0,0.0,0.0,0.0,0.0,0.0,-0.06820512562990189,0.07897436618804932,9.783845901489258,0.0,0.0,0.0,0.0,0.0,0.0,0.0,0.0,0.0
1646351293.8439305,7931,1646351293,843590506,,0.0,0.0,0.0,0.0,0.0,0.0,0.0,0.0,0.0,0.0,0.0,0.0,0.0,0.008371543139219284,0.008639149367809296,0.018583983182907104,0.0,0.0,0.0,0.0,0.0,0.0,0.0,0.0,0.0,-0.12564103305339813,-0.16153846681118011,9.90410327911377,0.0,0.0,0.0,0.0,0.0,0.0,0.0,0.0,0.0
1646351293.8463688,7932,1646351293,845949757,,0.0,0.0,0.0,0.0,0.0,0.0,0.0,0.0,0.0,0.0,0.0,0.0,0.0,-0.003346365410834551,-0.02118825353682041,-0.004851834382861853,0.0,0.0,0.0,0.0,0.0,0.0,0.0,0.0,0.0,-0.42538464069366455,-0.3087179660797119,9.676154136657715,0.0,0.0,0.0,0.0,0.0,0.0,0.0,0.0,0.0
1646351293.848563,7933,1646351293,848175057,,0.0,0.0,0.0,0.0,0.0,0.0,0.0,0.0,0.0,0.0,0.0,0.0,0.0,-0.0012158364988863468,0.013965470716357231,0.0015397525858134031,0.0,0.0,0.0,0.0,0.0,0.0,0.0,0.0,0.0,-0.2710256576538086,0.03769230842590332,10.164359092712402,0.0,0.0,0.0,0.0,0.0,0.0,0.0,0.0,0.0
1646351293.85079,7934,1646351293,850419439,,0.0,0.0,0.0,0.0,0.0,0.0,0.0,0.0,0.0,0.0,0.0,0.0,0.0,0.019024187698960304,-0.010535608977079391,0.026040835306048393,0.0,0.0,0.0,0.0,0.0,0.0,0.0,0.0,0.0,-0.17230769991874695,-0.36974361538887024,9.204102516174316,0.0,0.0,0.0,0.0,0.0,0.0,0.0,0.0,0.0
1646351293.8533363,7935,1646351293,852634996,,0.0,0.0,0.0,0.0,0.0,0.0,0.0,0.0,0.0,0.0,0.0,0.0,0.0,0.025415774434804916,-0.007339817471802235,-0.028287649154663086,0.0,0.0,0.0,0.0,0.0,0.0,0.0,0.0,0.0,0.10410256683826447,0.18307693302631378,9.44282054901123,0.0,0.0,0.0,0.0,0.0,0.0,0.0,0.0,0.0
1646351293.8551471,7936,1646351293,854902492,,0.0,0.0,0.0,0.0,0.0,0.0,0.0,0.0,0.0,0.0,0.0,0.0,0.0,0.019024187698960304,0.00011703448399202898,0.013257660903036594,0.0,0.0,0.0,0.0,0.0,0.0,0.0,0.0,0.0,0.2925640940666199,-0.2800000011920929,9.096410751342773,0.0,0.0,0.0,0.0,0.0,0.0,0.0,0.0,0.0
1646351293.8575435,7937,1646351293,857193666,,0.0,0.0,0.0,0.0,0.0,0.0,0.0,0.0,0.0,0.0,0.0,0.0,0.0,0.001979956403374672,0.006508619990199804,0.008996603079140186,0.0,0.0,0.0,0.0,0.0,0.0,0.0,0.0,0.0,0.15256410837173462,0.010769231244921684,9.10359001159668,0.0,0.0,0.0,0.0,0.0,0.0,0.0,0.0,0.0
1646351293.8608208,7938,1646351293,859573578,,0.0,0.0,0.0,0.0,0.0,0.0,0.0,0.0,0.0,0.0,0.0,0.0,0.0,-0.00015057262498885393,-0.008405081927776337,-0.016569742932915688,0.0,0.0,0.0,0.0,0.0,0.0,0.0,0.0,0.0,0.13641025125980377,-0.07717949151992798,9.128717422485352,0.0,0.0,0.0,0.0,0.0,0.0,0.0,0.0,0.0
1646351293.8622546,7939,1646351293,861854358,,0.0,0.0,0.0,0.0,0.0,0.0,0.0,0.0,0.0,0.0,0.0,0.0,0.0,0.017958922311663628,-0.0020134944934397936,0.02391030639410019,0.0,0.0,0.0,0.0,0.0,0.0,0.0,0.0,0.0,-0.26923078298568726,-0.36974361538887024,9.123332977294922,0.0,0.0,0.0,0.0,0.0,0.0,0.0,0.0,0.0
1646351293.864696,7940,1646351293,864206636,,0.0,0.0,0.0,0.0,0.0,0.0,0.0,0.0,0.0,0.0,0.0,0.0,0.0,0.009436807595193386,0.019291793927550316,0.033497683703899384,0.0,0.0,0.0,0.0,0.0,0.0,0.0,0.0,0.0,-0.18307693302631378,0.09512820839881897,9.846667289733887,0.0,0.0,0.0,0.0,0.0,0.0,0.0,0.0,0.0
1646351293.866787,7941,1646351293,866445324,,0.0,0.0,0.0,0.0,0.0,0.0,0.0,0.0,0.0,0.0,0.0,0.0,0.0,0.0030452206265181303,-0.006274553015828133,0.022845041006803513,0.0,0.0,0.0,0.0,0.0,0.0,0.0,0.0,0.0,-0.5330769419670105,-0.07717949151992798,9.60615348815918,0.0,0.0,0.0,0.0,0.0,0.0,0.0,0.0,0.0
1646351293.8690429,7942,1646351293,868673466,,0.0,0.0,0.0,0.0,0.0,0.0,0.0,0.0,0.0,0.0,0.0,0.0,0.0,0.009436807595193386,-0.024384047836065292,0.0058008101768791676,0.0,0.0,0.0,0.0,0.0,0.0,0.0,0.0,0.0,-0.18666666746139526,0.2387179583311081,9.931025505065918,0.0,0.0,0.0,0.0,0.0,0.0,0.0,0.0,0.0
1646351293.871287,7943,1646351293,870896568,,0.0,0.0,0.0,0.0,0.0,0.0,0.0,0.0,0.0,0.0,0.0,0.0,0.0,0.015828393399715424,-0.0009482299210503697,-0.0037865692283958197,0.0,0.0,0.0,0.0,0.0,0.0,0.0,0.0,0.0,-0.05025641247630119,-0.12564103305339813,9.484102249145508,0.0,0.0,0.0,0.0,0.0,0.0,0.0,0.0,0.0
1646351293.8735206,7944,1646351293,873120799,,0.0,0.0,0.0,0.0,0.0,0.0,0.0,0.0,0.0,0.0,0.0,0.0,0.0,0.01689365692436695,0.00011703448399202898,0.02710609696805477,0.0,0.0,0.0,0.0,0.0,0.0,0.0,0.0,0.0,0.21897436678409576,0.10769230872392654,9.161026000976562,0.0,0.0,0.0,0.0,0.0,0.0,0.0,0.0,0.0
1646351293.876144,7945,1646351293,875350199,,0.0,0.0,0.0,0.0,0.0,0.0,0.0,0.0,0.0,0.0,0.0,0.0,0.0,0.006241013761609793,-0.008405081927776337,0.0058008101768791676,0.0,0.0,0.0,0.0,0.0,0.0,0.0,0.0,0.0,-0.24948717653751373,0.20102564990520477,10.124872207641602,0.0,0.0,0.0,0.0,0.0,0.0,0.0,0.0,0.0
1646351293.8780072,7946,1646351293,877550294,,0.0,0.0,0.0,0.0,0.0,0.0,0.0,0.0,0.0,0.0,0.0,0.0,0.0,0.022219980135560036,0.007573884446173906,0.01112713199108839,0.0,0.0,0.0,0.0,0.0,0.0,0.0,0.0,0.0,0.06820512562990189,0.1148717999458313,9.668973922729492,0.0,0.0,0.0,0.0,0.0,0.0,0.0,0.0,0.0
1646351293.8801773,7947,1646351293,879816279,,0.0,0.0,0.0,0.0,0.0,0.0,0.0,0.0,0.0,0.0,0.0,0.0,0.0,0.01156733650714159,0.003312827320769429,-0.004851834382861853,0.0,0.0,0.0,0.0,0.0,0.0,0.0,0.0,0.0,-0.2710256576538086,0.31589746475219727,10.10153865814209,0.0,0.0,0.0,0.0,0.0,0.0,0.0,0.0,0.0
1646351293.8832338,7948,1646351293,882092576,,0.0,0.0,0.0,0.0,0.0,0.0,0.0,0.0,0.0,0.0,0.0,0.0,0.0,0.009436807595193386,0.001182297826744616,0.01964924857020378,0.0,0.0,0.0,0.0,0.0,0.0,0.0,0.0,0.0,0.032307691872119904,-0.22435897588729858,9.55589771270752,0.0,0.0,0.0,0.0,0.0,0.0,0.0,0.0,0.0
1646351293.8846676,7949,1646351293,884302263,,0.0,0.0,0.0,0.0,0.0,0.0,0.0,0.0,0.0,0.0,0.0,0.0,0.0,0.008371543139219284,0.011834941804409027,-0.008047626353800297,0.0,0.0,0.0,0.0,0.0,0.0,0.0,0.0,0.0,0.16692309081554413,0.0735897421836853,9.663589477539062,0.0,0.0,0.0,0.0,0.0,0.0,0.0,0.0,0.0
1646351293.8868577,7950,1646351293,886502544,,0.0,0.0,0.0,0.0,0.0,0.0,0.0,0.0,0.0,0.0,0.0,0.0,0.0,0.014763129875063896,-0.010535608977079391,-0.02722238563001156,0.0,0.0,0.0,0.0,0.0,0.0,0.0,0.0,0.0,0.12025640904903412,0.048461541533470154,9.498461723327637,0.0,0.0,0.0,0.0,0.0,0.0,0.0,0.0,0.0
1646351293.8890905,7951,1646351293,888695744,,0.0,0.0,0.0,0.0,0.0,0.0,0.0,0.0,0.0,0.0,0.0,0.0,0.0,0.001979956403374672,-0.004144023172557354,-0.018700269982218742,0.0,0.0,0.0,0.0,0.0,0.0,0.0,0.0,0.0,-0.05025641247630119,-0.2674359083175659,9.245384216308594,0.0,0.0,0.0,0.0,0.0,0.0,0.0,0.0,0.0
1646351293.8911784,7952,1646351293,890920928,,0.0,0.0,0.0,0.0,0.0,0.0,0.0,0.0,0.0,0.0,0.0,0.0,0.0,0.019024187698960304,0.03314023092389107,-0.017635004594922066,0.0,0.0,0.0,0.0,0.0,0.0,0.0,0.0,0.0,-0.11128205060958862,0.16692309081554413,9.977692604064941,0.0,0.0,0.0,0.0,0.0,0.0,0.0,0.0,0.0
1646351293.893566,7953,1646351293,893171277,,0.0,0.0,0.0,0.0,0.0,0.0,0.0,0.0,0.0,0.0,0.0,0.0,0.0,0.019024187698960304,-0.020122988149523735,-0.014439214020967484,0.0,0.0,0.0,0.0,0.0,0.0,0.0,0.0,0.0,-0.23512820899486542,0.03769230842590332,10.015384674072266,0.0,0.0,0.0,0.0,0.0,0.0,0.0,0.0,0.0
1646351293.8958976,7954,1646351293,895445733,,0.0,0.0,0.0,0.0,0.0,0.0,0.0,0.0,0.0,0.0,0.0,0.0,0.0,-0.002281100954860449,0.020357057452201843,-0.03041817992925644,0.0,0.0,0.0,0.0,0.0,0.0,0.0,0.0,0.0,-0.3625641167163849,0.18487180769443512,10.282820701599121,0.0,0.0,0.0,0.0,0.0,0.0,0.0,0.0,0.0
1646351293.8986034,7955,1646351293,897868488,,0.0,0.0,0.0,0.0,0.0,0.0,0.0,0.0,0.0,0.0,0.0,0.0,0.0,0.017958922311663628,0.007573884446173906,-0.03787503018975258,0.0,0.0,0.0,0.0,0.0,0.0,0.0,0.0,0.0,-0.19564102590084076,-0.04307692497968674,10.088973999023438,0.0,0.0,0.0,0.0,0.0,0.0,0.0,0.0,0.0
1646351293.9004278,7956,1646351293,900101685,,0.0,0.0,0.0,0.0,0.0,0.0,0.0,0.0,0.0,0.0,0.0,0.0,0.0,-0.00015057262498885393,0.010769677348434925,-0.03361397236585617,0.0,0.0,0.0,0.0,0.0,0.0,0.0,0.0,0.0,-0.12923076748847961,0.30153846740722656,10.223589897155762,0.0,0.0,0.0,0.0,0.0,0.0,0.0,0.0,0.0
1646351293.9039295,7957,1646351293,902367955,,0.0,0.0,0.0,0.0,0.0,0.0,0.0,0.0,0.0,0.0,0.0,0.0,0.0,0.005175749771296978,0.013965470716357231,-0.029352914541959763,0.0,0.0,0.0,0.0,0.0,0.0,0.0,0.0,0.0,-0.012564103119075298,-0.21717949211597443,9.401537895202637,0.0,0.0,0.0,0.0,0.0,0.0,0.0,0.0,0.0
1646351293.9048836,7958,1646351293,904603127,,0.0,0.0,0.0,0.0,0.0,0.0,0.0,0.0,0.0,0.0,0.0,0.0,0.0,0.010502072051167488,0.00224756239913404,-0.025091856718063354,0.0,0.0,0.0,0.0,0.0,0.0,0.0,0.0,0.0,-0.048461541533470154,-0.21717949211597443,9.50205135345459,0.0,0.0,0.0,0.0,0.0,0.0,0.0,0.0,0.0
1646351293.9071581,7959,1646351293,906796019,,0.0,0.0,0.0,0.0,0.0,0.0,0.0,0.0,0.0,0.0,0.0,0.0,0.0,-0.00441163033246994,-0.0009482299210503697,-0.06344137340784073,0.0,0.0,0.0,0.0,0.0,0.0,0.0,0.0,0.0,0.05564102530479431,0.11666666716337204,9.825127601623535,0.0,0.0,0.0,0.0,0.0,0.0,0.0,0.0,0.0
1646351293.9095094,7960,1646351293,909063489,,0.0,0.0,0.0,0.0,0.0,0.0,0.0,0.0,0.0,0.0,0.0,0.0,0.0,0.008371543139219284,0.006508619990199804,-0.06876770406961441,0.0,0.0,0.0,0.0,0.0,0.0,0.0,0.0,0.0,-0.3823077082633972,-0.001794871874153614,9.9094877243042,0.0,0.0,0.0,0.0,0.0,0.0,0.0,0.0,0.0
1646351293.9117389,7961,1646351293,911353051,,0.0,0.0,0.0,0.0,0.0,0.0,0.0,0.0,0.0,0.0,0.0,0.0,0.0,-0.0012158364988863468,0.008639149367809296,-0.040005557239055634,0.0,0.0,0.0,0.0,0.0,0.0,0.0,0.0,0.0,0.05384615436196327,0.1705128252506256,10.033333778381348,0.0,0.0,0.0,0.0,0.0,0.0,0.0,0.0,0.0
1646351293.914069,7962,1646351293,913647889,,0.0,0.0,0.0,0.0,0.0,0.0,0.0,0.0,0.0,0.0,0.0,0.0,0.0,-0.01506427489221096,0.00224756239913404,-0.07942034304141998,0.0,0.0,0.0,0.0,0.0,0.0,0.0,0.0,0.0,-0.18487180769443512,-0.048461541533470154,10.04769229888916,0.0,0.0,0.0,0.0,0.0,0.0,0.0,0.0,0.0
1646351293.9161654,7963,1646351293,915862418,,0.0,0.0,0.0,0.0,0.0,0.0,0.0,0.0,0.0,0.0,0.0,0.0,0.0,-0.0012158364988863468,0.016095999628305435,-0.06770243495702744,0.0,0.0,0.0,0.0,0.0,0.0,0.0,0.0,0.0,0.16692309081554413,0.13641025125980377,9.579231262207031,0.0,0.0,0.0,0.0,0.0,0.0,0.0,0.0,0.0
1646351293.9184737,7964,1646351293,918065316,,0.0,0.0,0.0,0.0,0.0,0.0,0.0,0.0,0.0,0.0,0.0,0.0,0.0,-0.01506427489221096,0.010769677348434925,-0.07196348905563354,0.0,0.0,0.0,0.0,0.0,0.0,0.0,0.0,0.0,-0.026923077180981636,0.05743589997291565,9.563076972961426,0.0,0.0,0.0,0.0,0.0,0.0,0.0,0.0,0.0
1646351293.9206474,7965,1646351293,920304025,,0.0,0.0,0.0,0.0,0.0,0.0,0.0,0.0,0.0,0.0,0.0,0.0,0.0,-0.01932533085346222,-0.005209287628531456,-0.10072562843561172,0.0,0.0,0.0,0.0,0.0,0.0,0.0,0.0,0.0,-0.16153846681118011,0.3823077082633972,10.334872245788574,0.0,0.0,0.0,0.0,0.0,0.0,0.0,0.0,0.0
1646351293.922779,7966,1646351293,922510712,,0.0,0.0,0.0,0.0,0.0,0.0,0.0,0.0,0.0,0.0,0.0,0.0,0.0,-0.009737951681017876,-0.0020134944934397936,-0.09966036677360535,0.0,0.0,0.0,0.0,0.0,0.0,0.0,0.0,0.0,-0.27820512652397156,0.31948718428611755,10.263076782226562,0.0,0.0,0.0,0.0,0.0,0.0,0.0,0.0,0.0
1646351293.9251328,7967,1646351293,924751088,,0.0,0.0,0.0,0.0,0.0,0.0,0.0,0.0,0.0,0.0,0.0,0.0,0.0,-0.009737951681017876,0.010769677348434925,-0.09326878190040588,0.0,0.0,0.0,0.0,0.0,0.0,0.0,0.0,0.0,-0.5025641322135925,0.05564102530479431,10.0853853225708,0.0,0.0,0.0,0.0,0.0,0.0,0.0,0.0,0.0
1646351293.9274843,7968,1646351293,926976662,,0.0,0.0,0.0,0.0,0.0,0.0,0.0,0.0,0.0,0.0,0.0,0.0,0.0,-0.00015057262498885393,0.00011703448399202898,-0.08687718957662582,0.0,0.0,0.0,0.0,0.0,0.0,0.0,0.0,0.0,-0.18666666746139526,0.2117948830127716,10.020769119262695,0.0,0.0,0.0,0.0,0.0,0.0,0.0,0.0,0.0
1646351293.9297156,7969,1646351293,929245737,,0.0,0.0,0.0,0.0,0.0,0.0,0.0,0.0,0.0,0.0,0.0,0.0,0.0,-0.02571691758930683,0.017161265015602112,-0.08900772035121918,0.0,0.0,0.0,0.0,0.0,0.0,0.0,0.0,0.0,-0.12923076748847961,-0.12025640904903412,9.367435455322266,0.0,0.0,0.0,0.0,0.0,0.0,0.0,0.0,0.0
1646351293.9318495,7970,1646351293,931515473,,0.0,0.0,0.0,0.0,0.0,0.0,0.0,0.0,0.0,0.0,0.0,0.0,0.0,0.006241013761609793,0.029944438487291336,-0.09433404356241226,0.0,0.0,0.0,0.0,0.0,0.0,0.0,0.0,0.0,0.18487180769443512,0.19384616613388062,9.568461418151855,0.0,0.0,0.0,0.0,0.0,0.0,0.0,0.0,0.0
1646351293.9340997,7971,1646351293,933795451,,0.0,0.0,0.0,0.0,0.0,0.0,0.0,0.0,0.0,0.0,0.0,0.0,0.0,0.0009146920638158917,-0.020122988149523735,-0.11883512139320374,0.0,0.0,0.0,0.0,0.0,0.0,0.0,0.0,0.0,0.08435897529125214,0.10051282495260239,9.539743423461914,0.0,0.0,0.0,0.0,0.0,0.0,0.0,0.0,0.0
1646351293.936543,7972,1646351293,936045055,,0.0,0.0,0.0,0.0,0.0,0.0,0.0,0.0,0.0,0.0,0.0,0.0,0.0,0.025415774434804916,-0.016927195712924004,-0.1252267062664032,0.0,0.0,0.0,0.0,0.0,0.0,0.0,0.0,0.0,-0.007179487496614456,0.3769230842590332,9.896923065185547,0.0,0.0,0.0,0.0,0.0,0.0,0.0,0.0,0.0
1646351293.9386625,7973,1646351293,938248179,,0.0,0.0,0.0,0.0,0.0,0.0,0.0,0.0,0.0,0.0,0.0,0.0,0.0,-0.0012158364988863468,-0.004144023172557354,-0.15079306066036224,0.0,0.0,0.0,0.0,0.0,0.0,0.0,0.0,0.0,-0.07000000029802322,-0.032307691872119904,9.686923027038574,0.0,0.0,0.0,0.0,0.0,0.0,0.0,0.0,0.0
1646351293.9411652,7974,1646351293,940504382,,0.0,0.0,0.0,0.0,0.0,0.0,0.0,0.0,0.0,0.0,0.0,0.0,0.0,0.02754630148410797,-0.015861930325627327,-0.12842249870300293,0.0,0.0,0.0,0.0,0.0,0.0,0.0,0.0,0.0,-0.4792307913303375,0.023333333432674408,9.868205070495605,0.0,0.0,0.0,0.0,0.0,0.0,0.0,0.0,0.0
1646351293.943054,7975,1646351293,942725085,,0.0,0.0,0.0,0.0,0.0,0.0,0.0,0.0,0.0,0.0,0.0,0.0,0.0,0.010502072051167488,-0.009470346383750439,-0.13055303692817688,0.0,0.0,0.0,0.0,0.0,0.0,0.0,0.0,0.0,-0.21358974277973175,0.3625641167163849,10.083589553833008,0.0,0.0,0.0,0.0,0.0,0.0,0.0,0.0,0.0
1646351293.946218,7976,1646351293,944991130,,0.0,0.0,0.0,0.0,0.0,0.0,0.0,0.0,0.0,0.0,0.0,0.0,0.0,-0.00654215831309557,-0.015861930325627327,-0.13694462180137634,0.0,0.0,0.0,0.0,0.0,0.0,0.0,0.0,0.0,0.0412820540368557,-0.19384616613388062,9.582819938659668,0.0,0.0,0.0,0.0,0.0,0.0,0.0,0.0,0.0
1646351293.9476213,7977,1646351293,947257352,,0.0,0.0,0.0,0.0,0.0,0.0,0.0,0.0,0.0,0.0,0.0,0.0,0.0,-0.02252112329006195,-0.011600873433053493,-0.1475972682237625,0.0,0.0,0.0,0.0,0.0,0.0,0.0,0.0,0.0,-0.26923078298568726,0.30512821674346924,10.218204498291016,0.0,0.0,0.0,0.0,0.0,0.0,0.0,0.0,0.0
1646351293.9499004,7978,1646351293,949477053,,0.0,0.0,0.0,0.0,0.0,0.0,0.0,0.0,0.0,0.0,0.0,0.0,0.0,-0.050217997282743454,-0.0009482299210503697,-0.15505412220954895,0.0,0.0,0.0,0.0,0.0,0.0,0.0,0.0,0.0,-0.4558974504470825,0.17230769991874695,10.05307674407959,0.0,0.0,0.0,0.0,0.0,0.0,0.0,0.0,0.0
1646351293.9520776,7979,1646351293,951740442,,0.0,0.0,0.0,0.0,0.0,0.0,0.0,0.0,0.0,0.0,0.0,0.0,0.0,-0.04063061624765396,0.004378091543912888,-0.13694462180137634,0.0,0.0,0.0,0.0,0.0,0.0,0.0,0.0,0.0,-0.4594871997833252,-0.17589744925498962,9.95974349975586,0.0,0.0,0.0,0.0,0.0,0.0,0.0,0.0,0.0
1646351293.9543068,7980,1646351293,953961582,,0.0,0.0,0.0,0.0,0.0,0.0,0.0,0.0,0.0,0.0,0.0,0.0,0.0,-0.061935905367136,0.006508619990199804,-0.1710330694913864,0.0,0.0,0.0,0.0,0.0,0.0,0.0,0.0,0.0,-0.1884615421295166,0.12564103305339813,9.778461456298828,0.0,0.0,0.0,0.0,0.0,0.0,0.0,0.0,0.0
1646351293.956457,7981,1646351293,956184681,,0.0,0.0,0.0,0.0,0.0,0.0,0.0,0.0,0.0,0.0,0.0,0.0,0.0,-0.07365381717681885,-0.0009482299210503697,-0.14120568335056305,0.0,0.0,0.0,0.0,0.0,0.0,0.0,0.0,0.0,0.07179487496614456,-0.2925640940666199,9.216666221618652,0.0,0.0,0.0,0.0,0.0,0.0,0.0,0.0,0.0
1646351293.9589024,7982,1646351293,958482866,,0.0,0.0,0.0,0.0,0.0,0.0,0.0,0.0,0.0,0.0,0.0,0.0,0.0,-0.06939276307821274,0.009704413823783398,-0.16783729195594788,0.0,0.0,0.0,0.0,0.0,0.0,0.0,0.0,0.0,0.10051282495260239,-0.04307692497968674,9.473333358764648,0.0,0.0,0.0,0.0,0.0,0.0,0.0,0.0,0.0
1646351293.9612918,7983,1646351293,960723331,,0.0,0.0,0.0,0.0,0.0,0.0,0.0,0.0,0.0,0.0,0.0,0.0,0.0,-0.09069804847240448,0.011834941804409027,-0.1763593852519989,0.0,0.0,0.0,0.0,0.0,0.0,0.0,0.0,0.0,0.2710256576538086,-0.4307692348957062,9.392563819885254,0.0,0.0,0.0,0.0,0.0,0.0,0.0,0.0,0.0
1646351293.9636042,7984,1646351293,962992039,,0.0,0.0,0.0,0.0,0.0,0.0,0.0,0.0,0.0,0.0,0.0,0.0,0.0,-0.0992201641201973,0.02887917309999466,-0.18488150835037231,0.0,0.0,0.0,0.0,0.0,0.0,0.0,0.0,0.0,-0.21000000834465027,0.023333333432674408,9.783845901489258,0.0,0.0,0.0,0.0,0.0,0.0,0.0,0.0,0.0
1646351293.9656544,7985,1646351293,965195511,,0.0,0.0,0.0,0.0,0.0,0.0,0.0,0.0,0.0,0.0,0.0,0.0,0.0,-0.09495910257101059,0.020357057452201843,-0.18701203167438507,0.0,0.0,0.0,0.0,0.0,0.0,0.0,0.0,0.0,-0.37512820959091187,-0.2153846174478531,10.080000877380371,0.0,0.0,0.0,0.0,0.0,0.0,0.0,0.0,0.0
1646351293.9678855,7986,1646351293,967406380,,0.0,0.0,0.0,0.0,0.0,0.0,0.0,0.0,0.0,0.0,0.0,0.0,0.0,-0.08643698692321777,0.016095999628305435,-0.1710330694913864,0.0,0.0,0.0,0.0,0.0,0.0,0.0,0.0,0.0,-0.4361538589000702,-0.11128205060958862,9.64384651184082,0.0,0.0,0.0,0.0,0.0,0.0,0.0,0.0,0.0
1646351293.9700217,7987,1646351293,969647647,,0.0,0.0,0.0,0.0,0.0,0.0,0.0,0.0,0.0,0.0,0.0,0.0,0.0,-0.0757843405008316,0.012900206260383129,-0.1859467625617981,0.0,0.0,0.0,0.0,0.0,0.0,0.0,0.0,0.0,-0.17230769991874695,0.11846154183149338,9.957948684692383,0.0,0.0,0.0,0.0,0.0,0.0,0.0,0.0,0.0
1646351293.9723625,7988,1646351293,971874826,,0.0,0.0,0.0,0.0,0.0,0.0,0.0,0.0,0.0,0.0,0.0,0.0,0.0,-0.03743482753634453,-0.0009482299210503697,-0.19872994720935822,0.0,0.0,0.0,0.0,0.0,0.0,0.0,0.0,0.0,0.09692308306694031,-0.20102564990520477,9.243589401245117,0.0,0.0,0.0,0.0,0.0,0.0,0.0,0.0,0.0
1646351293.9744978,7989,1646351293,974116752,,0.0,0.0,0.0,0.0,0.0,0.0,0.0,0.0,0.0,0.0,0.0,0.0,0.0,-0.04915273189544678,0.020357057452201843,-0.2317531406879425,0.0,0.0,0.0,0.0,0.0,0.0,0.0,0.0,0.0,-0.23512820899486542,-0.03410256281495094,10.071025848388672,0.0,0.0,0.0,0.0,0.0,0.0,0.0,0.0,0.0
1646351293.9770067,7990,1646351293,976353446,,0.0,0.0,0.0,0.0,0.0,0.0,0.0,0.0,0.0,0.0,0.0,0.0,0.0,-0.02571691758930683,-0.008405081927776337,-0.1944688856601715,0.0,0.0,0.0,0.0,0.0,0.0,0.0,0.0,0.0,-0.6533333659172058,-0.3176923394203186,9.65461540222168,0.0,0.0,0.0,0.0,0.0,0.0,0.0,0.0,0.0
1646351293.9789648,7991,1646351293,978564047,,0.0,0.0,0.0,0.0,0.0,0.0,0.0,0.0,0.0,0.0,0.0,0.0,0.0,0.0030452206265181303,0.023552851751446724,-0.19127309322357178,0.0,0.0,0.0,0.0,0.0,0.0,0.0,0.0,0.0,-0.3500000238418579,0.16871795058250427,9.9005126953125,0.0,0.0,0.0,0.0,0.0,0.0,0.0,0.0,0.0
1646351293.9822767,7992,1646351293,980785285,,0.0,0.0,0.0,0.0,0.0,0.0,0.0,0.0,0.0,0.0,0.0,0.0,0.0,0.019024187698960304,0.011834941804409027,-0.21470890939235687,0.0,0.0,0.0,0.0,0.0,0.0,0.0,0.0,0.0,0.0,-0.10230769217014313,9.415897369384766,0.0,0.0,0.0,0.0,0.0,0.0,0.0,0.0,0.0
1646351293.983379,7993,1646351293,982987037,,0.0,0.0,0.0,0.0,0.0,0.0,0.0,0.0,0.0,0.0,0.0,0.0,0.0,0.03606841340661049,0.011834941804409027,-0.20192573964595795,0.0,0.0,0.0,0.0,0.0,0.0,0.0,0.0,0.0,0.2674359083175659,0.01794871874153614,9.19333267211914,0.0,0.0,0.0,0.0,0.0,0.0,0.0,0.0,0.0
1646351293.9856048,7994,1646351293,985170543,,0.0,0.0,0.0,0.0,0.0,0.0,0.0,0.0,0.0,0.0,0.0,0.0,0.0,0.05311264470219612,0.020357057452201843,-0.2317531406879425,0.0,0.0,0.0,0.0,0.0,0.0,0.0,0.0,0.0,0.3320513069629669,-0.36974361538887024,9.19333267211914,0.0,0.0,0.0,0.0,0.0,0.0,0.0,0.0,0.0
1646351293.987872,7995,1646351293,987424956,,0.0,0.0,0.0,0.0,0.0,0.0,0.0,0.0,0.0,0.0,0.0,0.0,0.0,0.052047379314899445,0.019291793927550316,-0.20512153208255768,0.0,0.0,0.0,0.0,0.0,0.0,0.0,0.0,0.0,-0.08974359184503555,0.0825641080737114,9.656410217285156,0.0,0.0,0.0,0.0,0.0,0.0,0.0,0.0,0.0
1646351293.9911308,7996,1646351293,989676073,,0.0,0.0,0.0,0.0,0.0,0.0,0.0,0.0,0.0,0.0,0.0,0.0,0.0,0.06483055651187897,0.025683380663394928,-0.2221657633781433,0.0,0.0,0.0,0.0,0.0,0.0,0.0,0.0,0.0,-0.24948717653751373,-0.17769230902194977,9.918461799621582,0.0,0.0,0.0,0.0,0.0,0.0,0.0,0.0,0.0
1646351293.9921577,7997,1646351293,991878482,,0.0,0.0,0.0,0.0,0.0,0.0,0.0,0.0,0.0,0.0,0.0,0.0,0.0,0.06056949496269226,0.023552851751446724,-0.2083173245191574,0.0,0.0,0.0,0.0,0.0,0.0,0.0,0.0,0.0,-0.5402564406394958,-0.2297435998916626,9.74794864654541,0.0,0.0,0.0,0.0,0.0,0.0,0.0,0.0,0.0
1646351293.9945588,7998,1646351293,994075054,,0.0,0.0,0.0,0.0,0.0,0.0,0.0,0.0,0.0,0.0,0.0,0.0,0.0,0.037133678793907166,0.01822652854025364,-0.237079456448555,0.0,0.0,0.0,0.0,0.0,0.0,0.0,0.0,0.0,-0.14000000059604645,0.04307692497968674,10.080000877380371,0.0,0.0,0.0,0.0,0.0,0.0,0.0,0.0,0.0
1646351293.9968538,7999,1646351293,996333456,,0.0,0.0,0.0,0.0,0.0,0.0,0.0,0.0,0.0,0.0,0.0,0.0,0.0,0.037133678793907166,0.015030735172331333,-0.2136436402797699,0.0,0.0,0.0,0.0,0.0,0.0,0.0,0.0,0.0,0.16692309081554413,-0.36615386605262756,9.564871788024902,0.0,0.0,0.0,0.0,0.0,0.0,0.0,0.0,0.0
1646351293.9990273,8000,1646351293,998566709,,0.0,0.0,0.0,0.0,0.0,0.0,0.0,0.0,0.0,0.0,0.0,0.0,0.0,0.04352526739239693,0.004378091543912888,-0.22855734825134277,0.0,0.0,0.0,0.0,0.0,0.0,0.0,0.0,0.0,0.4451282024383545,-0.12564103305339813,9.455384254455566,0.0,0.0,0.0,0.0,0.0,0.0,0.0,0.0,0.0
1646351294.00105,8001,1646351294,766972,,0.0,0.0,0.0,0.0,0.0,0.0,0.0,0.0,0.0,0.0,0.0,0.0,0.0,0.025415774434804916,-0.009470346383750439,-0.23814472556114197,0.0,0.0,0.0,0.0,0.0,0.0,0.0,0.0,0.0,0.3446153998374939,-0.44871795177459717,9.15384578704834,0.0,0.0,0.0,0.0,0.0,0.0,0.0,0.0,0.0
1646351294.0032327,8002,1646351294,2954141,,0.0,0.0,0.0,0.0,0.0,0.0,0.0,0.0,0.0,0.0,0.0,0.0,0.0,0.01689365692436695,0.006508619990199804,-0.23494893312454224,0.0,0.0,0.0,0.0,0.0,0.0,0.0,0.0,0.0,-0.18307693302631378,-0.23512820899486542,9.8610258102417,0.0,0.0,0.0,0.0,0.0,0.0,0.0,0.0,0.0
1646351294.0056596,8003,1646351294,5284948,,0.0,0.0,0.0,0.0,0.0,0.0,0.0,0.0,0.0,0.0,0.0,0.0,0.0,0.033937886357307434,0.006508619990199804,-0.24347104132175446,0.0,0.0,0.0,0.0,0.0,0.0,0.0,0.0,0.0,-0.17589744925498962,-0.03410256281495094,9.75333309173584,0.0,0.0,0.0,0.0,0.0,0.0,0.0,0.0,0.0
1646351294.0078814,8004,1646351294,7485230,,0.0,0.0,0.0,0.0,0.0,0.0,0.0,0.0,0.0,0.0,0.0,0.0,0.0,0.0030452206265181303,0.016095999628305435,-0.2413405179977417,0.0,0.0,0.0,0.0,0.0,0.0,0.0,0.0,0.0,0.12564103305339813,-0.26923078298568726,9.728204727172852,0.0,0.0,0.0,0.0,0.0,0.0,0.0,0.0,0.0
1646351294.0102425,8005,1646351294,9752171,,0.0,0.0,0.0,0.0,0.0,0.0,0.0,0.0,0.0,0.0,0.0,0.0,0.0,0.013697865419089794,0.019291793927550316,-0.22855734825134277,0.0,0.0,0.0,0.0,0.0,0.0,0.0,0.0,0.0,0.3679487407207489,-0.07179487496614456,9.764102935791016,0.0,0.0,0.0,0.0,0.0,0.0,0.0,0.0,0.0
1646351294.012473,8006,1646351294,12034765,,0.0,0.0,0.0,0.0,0.0,0.0,0.0,0.0,0.0,0.0,0.0,0.0,0.0,0.013697865419089794,0.00224756239913404,-0.2701026499271393,0.0,0.0,0.0,0.0,0.0,0.0,0.0,0.0,0.0,0.4128205180168152,-0.3912820518016815,9.674358367919922,0.0,0.0,0.0,0.0,0.0,0.0,0.0,0.0,0.0
1646351294.0147147,8007,1646351294,14329703,,0.0,0.0,0.0,0.0,0.0,0.0,0.0,0.0,0.0,0.0,0.0,0.0,0.0,0.037133678793907166,0.003312827320769429,-0.22642681002616882,0.0,0.0,0.0,0.0,0.0,0.0,0.0,0.0,0.0,-0.001794871874153614,0.16333334147930145,10.155384063720703,0.0,0.0,0.0,0.0,0.0,0.0,0.0,0.0,0.0
1646351294.0170429,8008,1646351294,16595141,,0.0,0.0,0.0,0.0,0.0,0.0,0.0,0.0,0.0,0.0,0.0,0.0,0.0,0.012632600963115692,0.007573884446173906,-0.26690685749053955,0.0,0.0,0.0,0.0,0.0,0.0,0.0,0.0,0.0,-0.20820513367652893,0.0412820540368557,10.385128021240234,0.0,0.0,0.0,0.0,0.0,0.0,0.0,0.0,0.0
1646351294.0193386,8009,1646351294,18860248,,0.0,0.0,0.0,0.0,0.0,0.0,0.0,0.0,0.0,0.0,0.0,0.0,0.0,0.008371543139219284,-0.0020134944934397936,-0.24240578711032867,0.0,0.0,0.0,0.0,0.0,0.0,0.0,0.0,0.0,-0.34641027450561523,0.05923077091574669,10.309743881225586,0.0,0.0,0.0,0.0,0.0,0.0,0.0,0.0,0.0
1646351294.021533,8010,1646351294,21139265,,0.0,0.0,0.0,0.0,0.0,0.0,0.0,0.0,0.0,0.0,0.0,0.0,0.0,0.015828393399715424,0.00011703448399202898,-0.2541236877441406,0.0,0.0,0.0,0.0,0.0,0.0,0.0,0.0,0.0,0.005384615622460842,0.2979487180709839,10.081794738769531,0.0,0.0,0.0,0.0,0.0,0.0,0.0,0.0,0.0
1646351294.0246994,8011,1646351294,23362343,,0.0,0.0,0.0,0.0,0.0,0.0,0.0,0.0,0.0,0.0,0.0,0.0,0.0,-0.005476894788444042,0.001182297826744616,-0.24027524888515472,0.0,0.0,0.0,0.0,0.0,0.0,0.0,0.0,0.0,0.42897436022758484,-0.07717949151992798,9.764102935791016,0.0,0.0,0.0,0.0,0.0,0.0,0.0,0.0,0.0
1646351294.0258453,8012,1646351294,25577023,,0.0,0.0,0.0,0.0,0.0,0.0,0.0,0.0,0.0,0.0,0.0,0.0,0.0,0.008371543139219284,0.007573884446173906,-0.24773210287094116,0.0,0.0,0.0,0.0,0.0,0.0,0.0,0.0,0.0,0.14179487526416779,-0.15435898303985596,9.961538314819336,0.0,0.0,0.0,0.0,0.0,0.0,0.0,0.0,0.0
1646351294.0282886,8013,1646351294,27955965,,0.0,0.0,0.0,0.0,0.0,0.0,0.0,0.0,0.0,0.0,0.0,0.0,0.0,0.01689365692436695,0.00224756239913404,-0.23920999467372894,0.0,0.0,0.0,0.0,0.0,0.0,0.0,0.0,0.0,0.2028205245733261,-0.3769230842590332,9.449999809265137,0.0,0.0,0.0,0.0,0.0,0.0,0.0,0.0,0.0
1646351294.031087,8014,1646351294,30190848,,0.0,0.0,0.0,0.0,0.0,0.0,0.0,0.0,0.0,0.0,0.0,0.0,0.0,0.014763129875063896,-0.0020134944934397936,-0.2594500184059143,0.0,0.0,0.0,0.0,0.0,0.0,0.0,0.0,0.0,0.028717949986457825,0.16871795058250427,9.751538276672363,0.0,0.0,0.0,0.0,0.0,0.0,0.0,0.0,0.0
1646351294.0327551,8015,1646351294,32410404,,0.0,0.0,0.0,0.0,0.0,0.0,0.0,0.0,0.0,0.0,0.0,0.0,0.0,0.019024187698960304,-0.03610195219516754,-0.2786248028278351,0.0,0.0,0.0,0.0,0.0,0.0,0.0,0.0,0.0,-0.1794871836900711,-0.04307692497968674,9.710256576538086,0.0,0.0,0.0,0.0,0.0,0.0,0.0,0.0,0.0
1646351294.0359702,8016,1646351294,34676341,,0.0,0.0,0.0,0.0,0.0,0.0,0.0,0.0,0.0,0.0,0.0,0.0,0.0,-0.01186848059296608,-0.02225351706147194,-0.26264581084251404,0.0,0.0,0.0,0.0,0.0,0.0,0.0,0.0,0.0,-0.37512820959091187,0.1238461583852768,9.651025772094727,0.0,0.0,0.0,0.0,0.0,0.0,0.0,0.0,0.0
1646351294.0372665,8017,1646351294,36888619,,0.0,0.0,0.0,0.0,0.0,0.0,0.0,0.0,0.0,0.0,0.0,0.0,0.0,-0.007607422769069672,0.00011703448399202898,-0.26584160327911377,0.0,0.0,0.0,0.0,0.0,0.0,0.0,0.0,0.0,0.5815384387969971,-0.032307691872119904,9.412307739257812,0.0,0.0,0.0,0.0,0.0,0.0,0.0,0.0,0.0
1646351294.0396004,8018,1646351294,39152488,,0.0,0.0,0.0,0.0,0.0,0.0,0.0,0.0,0.0,0.0,0.0,0.0,0.0,0.01156733650714159,-0.009470346383750439,-0.25838473439216614,0.0,0.0,0.0,0.0,0.0,0.0,0.0,0.0,0.0,-0.023333333432674408,-0.23512820899486542,9.446410179138184,0.0,0.0,0.0,0.0,0.0,0.0,0.0,0.0,0.0
1646351294.0417113,8019,1646351294,41349577,,0.0,0.0,0.0,0.0,0.0,0.0,0.0,0.0,0.0,0.0,0.0,0.0,0.0,-0.032108504325151443,-0.013731402345001698,-0.28075534105300903,0.0,0.0,0.0,0.0,0.0,0.0,0.0,0.0,0.0,0.3033333420753479,0.3123077154159546,9.631281852722168,0.0,0.0,0.0,0.0,0.0,0.0,0.0,0.0,0.0
1646351294.043971,8020,1646351294,43688108,,0.0,0.0,0.0,0.0,0.0,0.0,0.0,0.0,0.0,0.0,0.0,0.0,0.0,-0.02678218111395836,-0.01799245923757553,-0.27116793394088745,0.0,0.0,0.0,0.0,0.0,0.0,0.0,0.0,0.0,0.14538460969924927,0.2979487180709839,9.95435905456543,0.0,0.0,0.0,0.0,0.0,0.0,0.0,0.0,0.0
1646351294.0463598,8021,1646351294,45947840,,0.0,0.0,0.0,0.0,0.0,0.0,0.0,0.0,0.0,0.0,0.0,0.0,0.0,-0.04382640868425369,-0.0286451056599617,-0.2775595188140869,0.0,0.0,0.0,0.0,0.0,0.0,0.0,0.0,0.0,-0.04307692497968674,-0.11846154183149338,9.09999942779541,0.0,0.0,0.0,0.0,0.0,0.0,0.0,0.0,0.0
1646351294.0486875,8022,1646351294,48203651,,0.0,0.0,0.0,0.0,0.0,0.0,0.0,0.0,0.0,0.0,0.0,0.0,0.0,-0.05447905510663986,-0.024384047836065292,-0.28395113348960876,0.0,0.0,0.0,0.0,0.0,0.0,0.0,0.0,0.0,-0.2530769407749176,0.18128205835819244,10.5879487991333,0.0,0.0,0.0,0.0,0.0,0.0,0.0,0.0,0.0
1646351294.050978,8023,1646351294,50464626,,0.0,0.0,0.0,0.0,0.0,0.0,0.0,0.0,0.0,0.0,0.0,0.0,0.0,-0.05874011293053627,-0.03503669053316116,-0.29779955744743347,0.0,0.0,0.0,0.0,0.0,0.0,0.0,0.0,0.0,0.21897436678409576,-0.2530769407749176,9.658205032348633,0.0,0.0,0.0,0.0,0.0,0.0,0.0,0.0,0.0
1646351294.0530891,8024,1646351294,52657333,,0.0,0.0,0.0,0.0,0.0,0.0,0.0,0.0,0.0,0.0,0.0,0.0,0.0,-0.07898014038801193,-0.04036301001906395,-0.2551889419555664,0.0,0.0,0.0,0.0,0.0,0.0,0.0,0.0,0.0,-0.0825641080737114,0.2441025674343109,9.963333129882812,0.0,0.0,0.0,0.0,0.0,0.0,0.0,0.0,0.0
1646351294.0553038,8025,1646351294,54949057,,0.0,0.0,0.0,0.0,0.0,0.0,0.0,0.0,0.0,0.0,0.0,0.0,0.0,-0.07791487127542496,-0.0424935407936573,-0.2924732565879822,0.0,0.0,0.0,0.0,0.0,0.0,0.0,0.0,0.0,0.19205129146575928,0.16871795058250427,9.534358978271484,0.0,0.0,0.0,0.0,0.0,0.0,0.0,0.0,0.0
1646351294.0576003,8026,1646351294,57175085,,0.0,0.0,0.0,0.0,0.0,0.0,0.0,0.0,0.0,0.0,0.0,0.0,0.0,-0.1034812182188034,-0.03716721758246422,-0.2818205952644348,0.0,0.0,0.0,0.0,0.0,0.0,0.0,0.0,0.0,0.3356410562992096,-0.18128205835819244,9.586410522460938,0.0,0.0,0.0,0.0,0.0,0.0,0.0,0.0,0.0
1646351294.0597656,8027,1646351294,59404850,,0.0,0.0,0.0,0.0,0.0,0.0,0.0,0.0,0.0,0.0,0.0,0.0,0.0,-0.10561174899339676,-0.0286451056599617,-0.30206063389778137,0.0,0.0,0.0,0.0,0.0,0.0,0.0,0.0,0.0,0.030512820929288864,-0.2441025674343109,9.823333740234375,0.0,0.0,0.0,0.0,0.0,0.0,0.0,0.0,0.0
1646351294.062113,8028,1646351294,61645833,,0.0,0.0,0.0,0.0,0.0,0.0,0.0,0.0,0.0,0.0,0.0,0.0,0.0,-0.10135068744421005,-0.03503669053316116,-0.30312588810920715,0.0,0.0,0.0,0.0,0.0,0.0,0.0,0.0,0.0,-0.11128205060958862,-0.3500000238418579,9.762307167053223,0.0,0.0,0.0,0.0,0.0,0.0,0.0,0.0,0.0
1646351294.0643723,8029,1646351294,63926810,,0.0,0.0,0.0,0.0,0.0,0.0,0.0,0.0,0.0,0.0,0.0,0.0,0.0,-0.10667701065540314,-0.008405081927776337,-0.3009953498840332,0.0,0.0,0.0,0.0,0.0,0.0,0.0,0.0,0.0,-0.39307692646980286,0.18666666746139526,10.392308235168457,0.0,0.0,0.0,0.0,0.0,0.0,0.0,0.0,0.0
1646351294.0675642,8030,1646351294,66250059,,0.0,0.0,0.0,0.0,0.0,0.0,0.0,0.0,0.0,0.0,0.0,0.0,0.0,-0.11839491873979568,-0.004144023172557354,-0.3009953498840332,0.0,0.0,0.0,0.0,0.0,0.0,0.0,0.0,0.0,-0.15974359214305878,-0.37512820959091187,9.50743579864502,0.0,0.0,0.0,0.0,0.0,0.0,0.0,0.0,0.0
1646351294.068922,8031,1646351294,68497665,,0.0,0.0,0.0,0.0,0.0,0.0,0.0,0.0,0.0,0.0,0.0,0.0,0.0,-0.10774227976799011,-0.011600873433053493,-0.30419114232063293,0.0,0.0,0.0,0.0,0.0,0.0,0.0,0.0,0.0,-0.5205128192901611,-0.09333333373069763,9.837692260742188,0.0,0.0,0.0,0.0,0.0,0.0,0.0,0.0,0.0
1646351294.0710158,8032,1646351294,70703405,,0.0,0.0,0.0,0.0,0.0,0.0,0.0,0.0,0.0,0.0,0.0,0.0,0.0,-0.09495910257101059,-0.005209287628531456,-0.32123538851737976,0.0,0.0,0.0,0.0,0.0,0.0,0.0,0.0,0.0,-0.5384615659713745,-0.03769230842590332,9.801794052124023,0.0,0.0,0.0,0.0,0.0,0.0,0.0,0.0,0.0
1646351294.0733316,8033,1646351294,72938877,,0.0,0.0,0.0,0.0,0.0,0.0,0.0,0.0,0.0,0.0,0.0,0.0,0.0,-0.06726223230361938,0.02461811527609825,-0.31271326541900635,0.0,0.0,0.0,0.0,0.0,0.0,0.0,0.0,0.0,0.2979487180709839,-0.4451282024383545,9.29025650024414,0.0,0.0,0.0,0.0,0.0,0.0,0.0,0.0,0.0
1646351294.0755625,8034,1646351294,75165051,,0.0,0.0,0.0,0.0,0.0,0.0,0.0,0.0,0.0,0.0,0.0,0.0,0.0,-0.09176331013441086,0.03314023092389107,-0.32230064272880554,0.0,0.0,0.0,0.0,0.0,0.0,0.0,0.0,0.0,-0.3535897731781006,-0.42897436022758484,9.557692527770996,0.0,0.0,0.0,0.0,0.0,0.0,0.0,0.0,0.0
1646351294.0777984,8035,1646351294,77387454,,0.0,0.0,0.0,0.0,0.0,0.0,0.0,0.0,0.0,0.0,0.0,0.0,0.0,-0.060870639979839325,0.03207496553659439,-0.31271326541900635,0.0,0.0,0.0,0.0,0.0,0.0,0.0,0.0,0.0,-0.22256410121917725,-0.6066666841506958,9.423076629638672,0.0,0.0,0.0,0.0,0.0,0.0,0.0,0.0,0.0
1646351294.080042,8036,1646351294,79662604,,0.0,0.0,0.0,0.0,0.0,0.0,0.0,0.0,0.0,0.0,0.0,0.0,0.0,-0.03636956214904785,0.017161265015602112,-0.35106274485588074,0.0,0.0,0.0,0.0,0.0,0.0,0.0,0.0,0.0,-0.26384615898132324,0.23692308366298676,10.074614524841309,0.0,0.0,0.0,0.0,0.0,0.0,0.0,0.0,0.0
1646351294.0823076,8037,1646351294,81871428,,0.0,0.0,0.0,0.0,0.0,0.0,0.0,0.0,0.0,0.0,0.0,0.0,0.0,-0.04915273189544678,0.02461811527609825,-0.3372143507003784,0.0,0.0,0.0,0.0,0.0,0.0,0.0,0.0,0.0,-0.23333333432674408,-0.010769231244921684,9.64923095703125,0.0,0.0,0.0,0.0,0.0,0.0,0.0,0.0,0.0
1646351294.0845525,8038,1646351294,84180060,,0.0,0.0,0.0,0.0,0.0,0.0,0.0,0.0,0.0,0.0,0.0,0.0,0.0,-0.013999010436236858,0.034205492585897446,-0.3489322364330292,0.0,0.0,0.0,0.0,0.0,0.0,0.0,0.0,0.0,0.19205129146575928,-0.27820512652397156,9.537948608398438,0.0,0.0,0.0,0.0,0.0,0.0,0.0,0.0,0.0
1646351294.0867739,8039,1646351294,86398327,,0.0,0.0,0.0,0.0,0.0,0.0,0.0,0.0,0.0,0.0,0.0,0.0,0.0,0.005175749771296978,0.052314989268779755,-0.35425853729248047,0.0,0.0,0.0,0.0,0.0,0.0,0.0,0.0,0.0,-0.08794872462749481,-0.5420513153076172,10.006409645080566,0.0,0.0,0.0,0.0,0.0,0.0,0.0,0.0,0.0
1646351294.0891356,8040,1646351294,88661160,,0.0,0.0,0.0,0.0,0.0,0.0,0.0,0.0,0.0,0.0,0.0,0.0,0.0,-0.012933745980262756,0.07255501300096512,-0.3244311809539795,0.0,0.0,0.0,0.0,0.0,0.0,0.0,0.0,0.0,-0.08615384995937347,-0.08615384995937347,9.9399995803833,0.0,0.0,0.0,0.0,0.0,0.0,0.0,0.0,0.0
1646351294.0913036,8041,1646351294,90873519,,0.0,0.0,0.0,0.0,0.0,0.0,0.0,0.0,0.0,0.0,0.0,0.0,0.0,-0.018260065466165543,0.04911919683218002,-0.34573644399642944,0.0,0.0,0.0,0.0,0.0,0.0,0.0,0.0,0.0,-0.1148717999458313,0.38410258293151855,10.656153678894043,0.0,0.0,0.0,0.0,0.0,0.0,0.0,0.0,0.0
1646351294.0936291,8042,1646351294,93143902,,0.0,0.0,0.0,0.0,0.0,0.0,0.0,0.0,0.0,0.0,0.0,0.0,0.0,0.004110485315322876,0.06296762824058533,-0.3489322364330292,0.0,0.0,0.0,0.0,0.0,0.0,0.0,0.0,0.0,-0.03769230842590332,-0.3858974575996399,10.083589553833008,0.0,0.0,0.0,0.0,0.0,0.0,0.0,0.0,0.0
1646351294.0957322,8043,1646351294,95334484,,0.0,0.0,0.0,0.0,0.0,0.0,0.0,0.0,0.0,0.0,0.0,0.0,0.0,-0.016129538416862488,0.04911919683218002,-0.3531932830810547,0.0,0.0,0.0,0.0,0.0,0.0,0.0,0.0,0.0,0.3858974575996399,-0.4217948913574219,10.05666732788086,0.0,0.0,0.0,0.0,0.0,0.0,0.0,0.0,0.0
1646351294.0979664,8044,1646351294,97552671,,0.0,0.0,0.0,0.0,0.0,0.0,0.0,0.0,0.0,0.0,0.0,0.0,0.0,-0.021455859765410423,0.07148974388837814,-0.3617154061794281,0.0,0.0,0.0,0.0,0.0,0.0,0.0,0.0,0.0,0.09871795028448105,-0.18666666746139526,9.712051391601562,0.0,0.0,0.0,0.0,0.0,0.0,0.0,0.0,0.0
1646351294.1002414,8045,1646351294,99827999,,0.0,0.0,0.0,0.0,0.0,0.0,0.0,0.0,0.0,0.0,0.0,0.0,0.0,-0.002281100954860449,0.04698866978287697,-0.37343332171440125,0.0,0.0,0.0,0.0,0.0,0.0,0.0,0.0,0.0,0.09871795028448105,-0.10948718339204788,9.814358711242676,0.0,0.0,0.0,0.0,0.0,0.0,0.0,0.0,0.0
1646351294.1023672,8046,1646351294,102029935,,0.0,0.0,0.0,0.0,0.0,0.0,0.0,0.0,0.0,0.0,0.0,0.0,0.0,-0.010803216136991978,0.06509815901517868,-0.3627806603908539,0.0,0.0,0.0,0.0,0.0,0.0,0.0,0.0,0.0,0.28179487586021423,-0.4774359166622162,9.830512046813965,0.0,0.0,0.0,0.0,0.0,0.0,0.0,0.0,0.0
1646351294.1046906,8047,1646351294,104235137,,0.0,0.0,0.0,0.0,0.0,0.0,0.0,0.0,0.0,0.0,0.0,0.0,0.0,-0.00654215831309557,0.07255501300096512,-0.3702375292778015,0.0,0.0,0.0,0.0,0.0,0.0,0.0,0.0,0.0,0.010769231244921684,-0.06461538374423981,10.191282272338867,0.0,0.0,0.0,0.0,0.0,0.0,0.0,0.0,0.0
