Time,header.seq,header.stamp.secs,header.stamp.nsecs,header.frame_id,orientation.x,orientation.y,orientation.z,orientation.w,orientation_covariance_0,orientation_covariance_1,orientation_covariance_2,orientation_covariance_3,orientation_covariance_4,orientation_covariance_5,orientation_covariance_6,orientation_covariance_7,orientation_covariance_8,angular_velocity.x,angular_velocity.y,angular_velocity.z,angular_velocity_covariance_0,angular_velocity_covariance_1,angular_velocity_covariance_2,angular_velocity_covariance_3,angular_velocity_covariance_4,angular_velocity_covariance_5,angular_velocity_covariance_6,angular_velocity_covariance_7,angular_velocity_covariance_8,linear_acceleration.x,linear_acceleration.y,linear_acceleration.z,linear_acceleration_covariance_0,linear_acceleration_covariance_1,linear_acceleration_covariance_2,linear_acceleration_covariance_3,linear_acceleration_covariance_4,linear_acceleration_covariance_5,linear_acceleration_covariance_6,linear_acceleration_covariance_7,linear_acceleration_covariance_8
1646244538.5137956,6438,1646244538,513096032,,0.0,0.0,0.0,0.0,0.0,0.0,0.0,0.0,0.0,0.0,0.0,0.0,0.0,0.04547435790300369,0.17420141398906708,0.010427623987197876,0.0,0.0,0.0,0.0,0.0,0.0,0.0,0.0,0.0,0.2889743745326996,-0.14538460969924927,9.362051010131836,0.0,0.0,0.0,0.0,0.0,0.0,0.0,0.0,0.0
1646244538.5157163,6439,1646244538,515385949,,0.0,0.0,0.0,0.0,0.0,0.0,0.0,0.0,0.0,0.0,0.0,0.0,0.0,0.03695223852992058,0.19018036127090454,0.006166566163301468,0.0,0.0,0.0,0.0,0.0,0.0,0.0,0.0,0.0,0.12564103305339813,-0.11666666716337204,9.685128211975098,0.0,0.0,0.0,0.0,0.0,0.0,0.0,0.0,0.0
1646244538.5179262,6440,1646244538,517615858,,0.0,0.0,0.0,0.0,0.0,0.0,0.0,0.0,0.0,0.0,0.0,0.0,0.0,0.05080067738890648,0.17207087576389313,0.006166566163301468,0.0,0.0,0.0,0.0,0.0,0.0,0.0,0.0,0.0,0.43974360823631287,-0.4774359166622162,9.302820205688477,0.0,0.0,0.0,0.0,0.0,0.0,0.0,0.0,0.0
1646244538.5201418,6441,1646244538,519804218,,0.0,0.0,0.0,0.0,0.0,0.0,0.0,0.0,0.0,0.0,0.0,0.0,0.0,0.03482171148061752,0.21681196987628937,-0.008747135289013386,0.0,0.0,0.0,0.0,0.0,0.0,0.0,0.0,0.0,0.3392307758331299,-0.05205128341913223,9.557692527770996,0.0,0.0,0.0,0.0,0.0,0.0,0.0,0.0,0.0
1646244538.5221903,6442,1646244538,521954314,,0.0,0.0,0.0,0.0,0.0,0.0,0.0,0.0,0.0,0.0,0.0,0.0,0.0,0.024169068783521652,0.18911509215831757,0.009362359531223774,0.0,0.0,0.0,0.0,0.0,0.0,0.0,0.0,0.0,0.39307692646980286,-0.27820512652397156,9.59000015258789,0.0,0.0,0.0,0.0,0.0,0.0,0.0,0.0,0.0
1646244538.5244348,6443,1646244538,524126527,,0.0,0.0,0.0,0.0,0.0,0.0,0.0,0.0,0.0,0.0,0.0,0.0,0.0,0.00712483748793602,0.21787723898887634,0.021080268546938896,0.0,0.0,0.0,0.0,0.0,0.0,0.0,0.0,0.0,0.29076921939849854,0.13102564215660095,9.638461112976074,0.0,0.0,0.0,0.0,0.0,0.0,0.0,0.0,0.0
1646244538.5267408,6444,1646244538,526344125,,0.0,0.0,0.0,0.0,0.0,0.0,0.0,0.0,0.0,0.0,0.0,0.0,0.0,-0.0067235990427434444,0.22320355474948883,0.010427623987197876,0.0,0.0,0.0,0.0,0.0,0.0,0.0,0.0,0.0,0.2297435998916626,-0.1328205168247223,9.45358943939209,0.0,0.0,0.0,0.0,0.0,0.0,0.0,0.0,0.0
1646244538.5287833,6445,1646244538,528548242,,0.0,0.0,0.0,0.0,0.0,0.0,0.0,0.0,0.0,0.0,0.0,0.0,0.0,-0.014180450700223446,0.2381172627210617,0.02001500315964222,0.0,0.0,0.0,0.0,0.0,0.0,0.0,0.0,0.0,0.2674359083175659,0.19205129146575928,9.832307815551758,0.0,0.0,0.0,0.0,0.0,0.0,0.0,0.0,0.0
1646244538.531133,6446,1646244538,530780204,,0.0,0.0,0.0,0.0,0.0,0.0,0.0,0.0,0.0,0.0,0.0,0.0,0.0,-0.019506771117448807,0.23279093205928802,0.03066764585673809,0.0,0.0,0.0,0.0,0.0,0.0,0.0,0.0,0.0,0.21717949211597443,-0.12743589282035828,8.819999694824219,0.0,0.0,0.0,0.0,0.0,0.0,0.0,0.0,0.0
1646244538.5333066,6447,1646244538,533006120,,0.0,0.0,0.0,0.0,0.0,0.0,0.0,0.0,0.0,0.0,0.0,0.0,0.0,-0.034420475363731384,0.23279093205928802,0.025341326370835304,0.0,0.0,0.0,0.0,0.0,0.0,0.0,0.0,0.0,0.4361538589000702,-0.10948718339204788,10.64897346496582,0.0,0.0,0.0,0.0,0.0,0.0,0.0,0.0,0.0
1646244538.5355024,6448,1646244538,535172997,,0.0,0.0,0.0,0.0,0.0,0.0,0.0,0.0,0.0,0.0,0.0,0.0,0.0,-0.0067235990427434444,0.233856201171875,-0.021530307829380035,0.0,0.0,0.0,0.0,0.0,0.0,0.0,0.0,0.0,-0.20461538434028625,-0.06641025841236115,8.401795387268066,0.0,0.0,0.0,0.0,0.0,0.0,0.0,0.0,0.0
1646244538.5375292,6449,1646244538,537330069,,0.0,0.0,0.0,0.0,0.0,0.0,0.0,0.0,0.0,0.0,0.0,0.0,0.0,0.0028637798968702555,0.21787723898887634,0.021080268546938896,0.0,0.0,0.0,0.0,0.0,0.0,0.0,0.0,0.0,0.5366666913032532,0.18666666746139526,9.570256233215332,0.0,0.0,0.0,0.0,0.0,0.0,0.0,0.0,0.0
1646244538.539903,6450,1646244538,539535936,,0.0,0.0,0.0,0.0,0.0,0.0,0.0,0.0,0.0,0.0,0.0,0.0,0.0,0.001798515673726797,0.2434435784816742,-0.0023555487859994173,0.0,0.0,0.0,0.0,0.0,0.0,0.0,0.0,0.0,0.2889743745326996,-0.06820512562990189,10.706409454345703,0.0,0.0,0.0,0.0,0.0,0.0,0.0,0.0,0.0
1646244538.541998,6451,1646244538,541692062,,0.0,0.0,0.0,0.0,0.0,0.0,0.0,0.0,0.0,0.0,0.0,0.0,0.0,-0.0003320134710520506,0.22107303142547607,0.018949739634990692,0.0,0.0,0.0,0.0,0.0,0.0,0.0,0.0,0.0,-0.2853846251964569,-0.14358974993228912,9.873589515686035,0.0,0.0,0.0,0.0,0.0,0.0,0.0,0.0,0.0
1646244538.5441644,6452,1646244538,543837898,,0.0,0.0,0.0,0.0,0.0,0.0,0.0,0.0,0.0,0.0,0.0,0.0,0.0,0.019908009096980095,0.2200077623128891,-0.0012902843300253153,0.0,0.0,0.0,0.0,0.0,0.0,0.0,0.0,0.0,-0.2764102518558502,0.45769232511520386,9.591794967651367,0.0,0.0,0.0,0.0,0.0,0.0,0.0,0.0,0.0
1646244538.546362,6453,1646244538,546052593,,0.0,0.0,0.0,0.0,0.0,0.0,0.0,0.0,0.0,0.0,0.0,0.0,0.0,0.016712216660380363,0.2157467007637024,-0.004486078396439552,0.0,0.0,0.0,0.0,0.0,0.0,0.0,0.0,0.0,-0.08974359184503555,-0.05205128341913223,10.40666675567627,0.0,0.0,0.0,0.0,0.0,0.0,0.0,0.0,0.0
1646244538.548462,6454,1646244538,548207384,,0.0,0.0,0.0,0.0,0.0,0.0,0.0,0.0,0.0,0.0,0.0,0.0,0.0,0.030560653656721115,0.17952772974967957,-0.009812399744987488,0.0,0.0,0.0,0.0,0.0,0.0,0.0,0.0,0.0,-0.16692309081554413,-0.07000000029802322,10.0369234085083,0.0,0.0,0.0,0.0,0.0,0.0,0.0,0.0,0.0
1646244538.550634,6455,1646244538,550364937,,0.0,0.0,0.0,0.0,0.0,0.0,0.0,0.0,0.0,0.0,0.0,0.0,0.0,0.02523433417081833,0.18591931462287903,-0.0076818703673779964,0.0,0.0,0.0,0.0,0.0,0.0,0.0,0.0,0.0,0.06282051652669907,0.18128205835819244,10.356410026550293,0.0,0.0,0.0,0.0,0.0,0.0,0.0,0.0,0.0
1646244538.552831,6456,1646244538,552586032,,0.0,0.0,0.0,0.0,0.0,0.0,0.0,0.0,0.0,0.0,0.0,0.0,0.0,0.006059573031961918,0.17846247553825378,0.010427623987197876,0.0,0.0,0.0,0.0,0.0,0.0,0.0,0.0,0.0,-0.27820512652397156,-0.16871795058250427,10.625641822814941,0.0,0.0,0.0,0.0,0.0,0.0,0.0,0.0,0.0
1646244538.5550144,6457,1646244538,554783871,,0.0,0.0,0.0,0.0,0.0,0.0,0.0,0.0,0.0,0.0,0.0,0.0,0.0,0.03375644609332085,0.14863504469394684,-0.01087766420096159,0.0,0.0,0.0,0.0,0.0,0.0,0.0,0.0,0.0,-0.17230769991874695,0.08615384995937347,11.051025390625,0.0,0.0,0.0,0.0,0.0,0.0,0.0,0.0,0.0
1646244538.5572174,6458,1646244538,557015624,,0.0,0.0,0.0,0.0,0.0,0.0,0.0,0.0,0.0,0.0,0.0,0.0,0.0,0.00925536546856165,0.10495921224355698,0.01255815289914608,0.0,0.0,0.0,0.0,0.0,0.0,0.0,0.0,0.0,-0.19564102590084076,-0.30153846740722656,10.763845443725586,0.0,0.0,0.0,0.0,0.0,0.0,0.0,0.0,0.0
1646244538.5595527,6459,1646244538,559233716,,0.0,0.0,0.0,0.0,0.0,0.0,0.0,0.0,0.0,0.0,0.0,0.0,0.0,0.003929044120013714,0.07726234942674637,-0.02366083674132824,0.0,0.0,0.0,0.0,0.0,0.0,0.0,0.0,0.0,-0.2997435927391052,0.30512821674346924,11.113846778869629,0.0,0.0,0.0,0.0,0.0,0.0,0.0,0.0,0.0
1646244538.5616841,6460,1646244538,561426212,,0.0,0.0,0.0,0.0,0.0,0.0,0.0,0.0,0.0,0.0,0.0,0.0,0.0,0.001798515673726797,0.08471919596195221,0.02001500315964222,0.0,0.0,0.0,0.0,0.0,0.0,0.0,0.0,0.0,-0.16333334147930145,-0.0412820540368557,11.180255889892578,0.0,0.0,0.0,0.0,0.0,0.0,0.0,0.0,0.0
1646244538.5638785,6461,1646244538,563586663,,0.0,0.0,0.0,0.0,0.0,0.0,0.0,0.0,0.0,0.0,0.0,0.0,0.0,-0.0067235990427434444,0.05489179491996765,-0.01087766420096159,0.0,0.0,0.0,0.0,0.0,0.0,0.0,0.0,0.0,-0.2656410336494446,0.35179489850997925,11.31128215789795,0.0,0.0,0.0,0.0,0.0,0.0,0.0,0.0,0.0
1646244538.5660493,6462,1646244538,565774706,,0.0,0.0,0.0,0.0,0.0,0.0,0.0,0.0,0.0,0.0,0.0,0.0,0.0,-0.008854128420352936,0.0005633095279335976,-0.02685662917792797,0.0,0.0,0.0,0.0,0.0,0.0,0.0,0.0,0.0,-0.22435897588729858,-0.0825641080737114,11.30051326751709,0.0,0.0,0.0,0.0,0.0,0.0,0.0,0.0,0.0
1646244538.5682764,6463,1646244538,567978436,,0.0,0.0,0.0,0.0,0.0,0.0,0.0,0.0,0.0,0.0,0.0,0.0,0.0,-0.013115186244249344,0.011215953156352043,0.0019055086886510253,0.0,0.0,0.0,0.0,0.0,0.0,0.0,0.0,0.0,-0.4325641095638275,0.2297435998916626,11.39025592803955,0.0,0.0,0.0,0.0,0.0,0.0,0.0,0.0,0.0
1646244538.5703607,6464,1646244538,570135950,,0.0,0.0,0.0,0.0,0.0,0.0,0.0,0.0,0.0,0.0,0.0,0.0,0.0,-0.019506771117448807,-0.018611449748277664,-0.032182954251766205,0.0,0.0,0.0,0.0,0.0,0.0,0.0,0.0,0.0,-0.5241025686264038,0.016153845936059952,11.196410179138184,0.0,0.0,0.0,0.0,0.0,0.0,0.0,0.0,0.0
1646244538.5726266,6465,1646244538,572303417,,0.0,0.0,0.0,0.0,0.0,0.0,0.0,0.0,0.0,0.0,0.0,0.0,0.0,-0.005658335518091917,-0.02287250943481922,-0.01407345850020647,0.0,0.0,0.0,0.0,0.0,0.0,0.0,0.0,0.0,-0.5600000023841858,-0.19205129146575928,11.280768394470215,0.0,0.0,0.0,0.0,0.0,0.0,0.0,0.0,0.0
1646244538.5747633,6466,1646244538,574447281,,0.0,0.0,0.0,0.0,0.0,0.0,0.0,0.0,0.0,0.0,0.0,0.0,0.0,-0.005658335518091917,-0.07293993979692459,-0.028987158089876175,0.0,0.0,0.0,0.0,0.0,0.0,0.0,0.0,0.0,-0.8417949080467224,0.3392307758331299,11.320257186889648,0.0,0.0,0.0,0.0,0.0,0.0,0.0,0.0,0.0
1646244538.5768738,6467,1646244538,576598584,,0.0,0.0,0.0,0.0,0.0,0.0,0.0,0.0,0.0,0.0,0.0,0.0,0.0,-0.013115186244249344,-0.07826624810695648,0.004036037251353264,0.0,0.0,0.0,0.0,0.0,0.0,0.0,0.0,0.0,-0.7807692289352417,0.1382051259279251,11.025897026062012,0.0,0.0,0.0,0.0,0.0,0.0,0.0,0.0,0.0
1646244538.579139,6468,1646244538,578792490,,0.0,0.0,0.0,0.0,0.0,0.0,0.0,0.0,0.0,0.0,0.0,0.0,0.0,-0.004593071062117815,-0.06974414736032486,-0.04070506617426872,0.0,0.0,0.0,0.0,0.0,0.0,0.0,0.0,0.0,-0.6802564263343811,0.3715384900569916,11.392051696777344,0.0,0.0,0.0,0.0,0.0,0.0,0.0,0.0,0.0
1646244538.581238,6469,1646244538,580999228,,0.0,0.0,0.0,0.0,0.0,0.0,0.0,0.0,0.0,0.0,0.0,0.0,0.0,0.01777748018503189,-0.10383259505033493,-0.01939977891743183,0.0,0.0,0.0,0.0,0.0,0.0,0.0,0.0,0.0,-1.0069230794906616,-0.010769231244921684,10.912820816040039,0.0,0.0,0.0,0.0,0.0,0.0,0.0,0.0,0.0
1646244538.5840158,6470,1646244538,583204565,,0.0,0.0,0.0,0.0,0.0,0.0,0.0,0.0,0.0,0.0,0.0,0.0,0.0,-0.0013972773449495435,-0.08785363286733627,-0.018334513530135155,0.0,0.0,0.0,0.0,0.0,0.0,0.0,0.0,0.0,-0.9243589639663696,0.13641025125980377,10.964871406555176,0.0,0.0,0.0,0.0,0.0,0.0,0.0,0.0,0.0
1646244538.585543,6471,1646244538,585353194,,0.0,0.0,0.0,0.0,0.0,0.0,0.0,0.0,0.0,0.0,0.0,0.0,0.0,0.00712483748793602,-0.09744101017713547,-0.03750927746295929,0.0,0.0,0.0,0.0,0.0,0.0,0.0,0.0,0.0,-0.8974359035491943,0.13461539149284363,10.632820129394531,0.0,0.0,0.0,0.0,0.0,0.0,0.0,0.0,0.0
1646244538.5877812,6472,1646244538,587556076,,0.0,0.0,0.0,0.0,0.0,0.0,0.0,0.0,0.0,0.0,0.0,0.0,0.0,0.004994308575987816,-0.08891889452934265,-0.024726100265979767,0.0,0.0,0.0,0.0,0.0,0.0,0.0,0.0,0.0,-0.7269231081008911,0.4882051348686218,10.778204917907715,0.0,0.0,0.0,0.0,0.0,0.0,0.0,0.0,0.0
1646244538.5899234,6473,1646244538,589710178,,0.0,0.0,0.0,0.0,0.0,0.0,0.0,0.0,0.0,0.0,0.0,0.0,0.0,0.01777748018503189,-0.08998416364192963,-0.04816191643476486,0.0,0.0,0.0,0.0,0.0,0.0,0.0,0.0,0.0,-0.6946154236793518,0.16871795058250427,10.225384712219238,0.0,0.0,0.0,0.0,0.0,0.0,0.0,0.0,0.0
1646244538.592176,6474,1646244538,591873275,,0.0,0.0,0.0,0.0,0.0,0.0,0.0,0.0,0.0,0.0,0.0,0.0,0.0,0.011385894380509853,-0.09531047940254211,-0.039639800786972046,0.0,0.0,0.0,0.0,0.0,0.0,0.0,0.0,0.0,-0.6282051801681519,0.4738461673259735,10.336666107177734,0.0,0.0,0.0,0.0,0.0,0.0,0.0,0.0,0.0
1646244538.5943289,6475,1646244538,594074644,,0.0,0.0,0.0,0.0,0.0,0.0,0.0,0.0,0.0,0.0,0.0,0.0,0.0,0.041213300079107285,-0.08998416364192963,-0.047096651047468185,0.0,0.0,0.0,0.0,0.0,0.0,0.0,0.0,0.0,-0.8525640964508057,0.25487178564071655,10.19487190246582,0.0,0.0,0.0,0.0,0.0,0.0,0.0,0.0,0.0
1646244538.596577,6476,1646244538,596251844,,0.0,0.0,0.0,0.0,0.0,0.0,0.0,0.0,0.0,0.0,0.0,0.0,0.0,-0.016310978680849075,-0.09424521774053574,-0.031117688864469528,0.0,0.0,0.0,0.0,0.0,0.0,0.0,0.0,0.0,-0.6856410503387451,-0.00897435937076807,10.013589859008789,0.0,0.0,0.0,0.0,0.0,0.0,0.0,0.0,0.0
1646244538.5987096,6477,1646244538,598466767,,0.0,0.0,0.0,0.0,0.0,0.0,0.0,0.0,0.0,0.0,0.0,0.0,0.0,0.0103206317871809,-0.09637574851512909,-0.03644401207566261,0.0,0.0,0.0,0.0,0.0,0.0,0.0,0.0,0.0,-0.6982051730155945,0.24948717653751373,10.340256690979004,0.0,0.0,0.0,0.0,0.0,0.0,0.0,0.0,0.0
1646244538.6009617,6478,1646244538,600641579,,0.0,0.0,0.0,0.0,0.0,0.0,0.0,0.0,0.0,0.0,0.0,0.0,0.0,-0.0013972773449495435,-0.11022418737411499,-0.05348823964595795,0.0,0.0,0.0,0.0,0.0,0.0,0.0,0.0,0.0,-0.34282052516937256,0.14000000059604645,9.947179794311523,0.0,0.0,0.0,0.0,0.0,0.0,0.0,0.0,0.0
1646244538.6030142,6479,1646244538,602799425,,0.0,0.0,0.0,0.0,0.0,0.0,0.0,0.0,0.0,0.0,0.0,0.0,0.0,-0.017376242205500603,-0.11341997981071472,-0.03431348130106926,0.0,0.0,0.0,0.0,0.0,0.0,0.0,0.0,0.0,-0.5725641250610352,0.3500000238418579,9.95974349975586,0.0,0.0,0.0,0.0,0.0,0.0,0.0,0.0,0.0
1646244538.6052485,6480,1646244538,604980799,,0.0,0.0,0.0,0.0,0.0,0.0,0.0,0.0,0.0,0.0,0.0,0.0,0.0,-0.026963621377944946,-0.11235471069812775,-0.04922718182206154,0.0,0.0,0.0,0.0,0.0,0.0,0.0,0.0,0.0,-0.4217948913574219,0.24948717653751373,10.178717613220215,0.0,0.0,0.0,0.0,0.0,0.0,0.0,0.0,0.0
1646244538.6074476,6481,1646244538,607206859,,0.0,0.0,0.0,0.0,0.0,0.0,0.0,0.0,0.0,0.0,0.0,0.0,0.0,-0.03655100241303444,-0.11661577224731445,-0.0162039864808321,0.0,0.0,0.0,0.0,0.0,0.0,0.0,0.0,0.0,-0.4038461744785309,-0.19205129146575928,9.825127601623535,0.0,0.0,0.0,0.0,0.0,0.0,0.0,0.0,0.0
1646244538.6097133,6482,1646244538,609363937,,0.0,0.0,0.0,0.0,0.0,0.0,0.0,0.0,0.0,0.0,0.0,0.0,0.0,-0.022702563554048538,-0.15709583461284637,-0.028987158089876175,0.0,0.0,0.0,0.0,0.0,0.0,0.0,0.0,0.0,-0.42538464069366455,0.11307692527770996,9.9884614944458,0.0,0.0,0.0,0.0,0.0,0.0,0.0,0.0,0.0
1646244538.6119988,6483,1646244538,611579764,,0.0,0.0,0.0,0.0,0.0,0.0,0.0,0.0,0.0,0.0,0.0,0.0,0.0,-0.017376242205500603,-0.14963898062705994,-0.008747135289013386,0.0,0.0,0.0,0.0,0.0,0.0,0.0,0.0,0.0,-0.2997435927391052,-0.07538461685180664,9.575640678405762,0.0,0.0,0.0,0.0,0.0,0.0,0.0,0.0,0.0
1646244538.6140807,6484,1646244538,613781653,,0.0,0.0,0.0,0.0,0.0,0.0,0.0,0.0,0.0,0.0,0.0,0.0,0.0,-0.015245715156197548,-0.15070423483848572,-0.0162039864808321,0.0,0.0,0.0,0.0,0.0,0.0,0.0,0.0,0.0,-0.43794873356819153,0.4271794855594635,9.796409606933594,0.0,0.0,0.0,0.0,0.0,0.0,0.0,0.0,0.0
1646244538.6163602,6485,1646244538,616020216,,0.0,0.0,0.0,0.0,0.0,0.0,0.0,0.0,0.0,0.0,0.0,0.0,0.0,-0.03548574075102806,-0.16455265879631042,-0.013008194044232368,0.0,0.0,0.0,0.0,0.0,0.0,0.0,0.0,0.0,-0.2153846174478531,-0.0412820540368557,9.520000457763672,0.0,0.0,0.0,0.0,0.0,0.0,0.0,0.0,0.0
1646244538.6184325,6486,1646244538,618192432,,0.0,0.0,0.0,0.0,0.0,0.0,0.0,0.0,0.0,0.0,0.0,0.0,0.0,0.013516423292458057,-0.1794663667678833,-0.01407345850020647,0.0,0.0,0.0,0.0,0.0,0.0,0.0,0.0,0.0,-0.4828205108642578,0.012564103119075298,9.794615745544434,0.0,0.0,0.0,0.0,0.0,0.0,0.0,0.0,0.0
1646244538.6206796,6487,1646244538,620389087,,0.0,0.0,0.0,0.0,0.0,0.0,0.0,0.0,0.0,0.0,0.0,0.0,0.0,-0.0013972773449495435,-0.1890537440776825,-0.028987158089876175,0.0,0.0,0.0,0.0,0.0,0.0,0.0,0.0,0.0,-0.6084615588188171,0.3141025900840759,9.796409606933594,0.0,0.0,0.0,0.0,0.0,0.0,0.0,0.0,0.0
1646244538.6229815,6488,1646244538,622590705,,0.0,0.0,0.0,0.0,0.0,0.0,0.0,0.0,0.0,0.0,0.0,0.0,0.0,0.02523433417081833,-0.19438005983829498,-0.011942928656935692,0.0,0.0,0.0,0.0,0.0,0.0,0.0,0.0,0.0,-0.5420513153076172,-0.1741025745868683,9.622307777404785,0.0,0.0,0.0,0.0,0.0,0.0,0.0,0.0,0.0
1646244538.6261039,6489,1646244538,624882042,,0.0,0.0,0.0,0.0,0.0,0.0,0.0,0.0,0.0,0.0,0.0,0.0,0.0,0.014581688679754734,-0.1890537440776825,-0.027921894565224648,0.0,0.0,0.0,0.0,0.0,0.0,0.0,0.0,0.0,-0.43435898423194885,0.17769230902194977,9.907692909240723,0.0,0.0,0.0,0.0,0.0,0.0,0.0,0.0,0.0
1646244538.6272855,6490,1646244538,627039443,,0.0,0.0,0.0,0.0,0.0,0.0,0.0,0.0,0.0,0.0,0.0,0.0,0.0,0.019908009096980095,-0.20929376780986786,0.018949739634990692,0.0,0.0,0.0,0.0,0.0,0.0,0.0,0.0,0.0,-0.3500000238418579,-0.23153845965862274,9.572051048278809,0.0,0.0,0.0,0.0,0.0,0.0,0.0,0.0,0.0
1646244538.629598,6491,1646244538,629209010,,0.0,0.0,0.0,0.0,0.0,0.0,0.0,0.0,0.0,0.0,0.0,0.0,0.0,0.019908009096980095,-0.21142429113388062,-0.0034208132419735193,0.0,0.0,0.0,0.0,0.0,0.0,0.0,0.0,0.0,-0.3912820518016815,0.5905128121376038,9.717435836791992,0.0,0.0,0.0,0.0,0.0,0.0,0.0,0.0,0.0
1646244538.6316311,6492,1646244538,631374981,,0.0,0.0,0.0,0.0,0.0,0.0,0.0,0.0,0.0,0.0,0.0,0.0,0.0,0.02949538826942444,-0.18372742831707,-0.0012902843300253153,0.0,0.0,0.0,0.0,0.0,0.0,0.0,0.0,0.0,-0.032307691872119904,0.025128206238150597,9.482307434082031,0.0,0.0,0.0,0.0,0.0,0.0,0.0,0.0,0.0
1646244538.6337373,6493,1646244538,633533379,,0.0,0.0,0.0,0.0,0.0,0.0,0.0,0.0,0.0,0.0,0.0,0.0,0.0,0.023103805258870125,-0.22953379154205322,-0.004486078396439552,0.0,0.0,0.0,0.0,0.0,0.0,0.0,0.0,0.0,-0.13641025125980377,0.07897436618804932,9.674358367919922,0.0,0.0,0.0,0.0,0.0,0.0,0.0,0.0,0.0
1646244538.6359673,6494,1646244538,635686067,,0.0,0.0,0.0,0.0,0.0,0.0,0.0,0.0,0.0,0.0,0.0,0.0,0.0,0.001798515673726797,-0.1752053052186966,0.010427623987197876,0.0,0.0,0.0,0.0,0.0,0.0,0.0,0.0,0.0,-0.13641025125980377,0.1328205168247223,9.511025428771973,0.0,0.0,0.0,0.0,0.0,0.0,0.0,0.0,0.0
1646244538.6382565,6495,1646244538,637915746,,0.0,0.0,0.0,0.0,0.0,0.0,0.0,0.0,0.0,0.0,0.0,0.0,0.0,0.001798515673726797,-0.20609797537326813,0.005101301707327366,0.0,0.0,0.0,0.0,0.0,0.0,0.0,0.0,0.0,-0.21717949211597443,0.32846155762672424,9.509230613708496,0.0,0.0,0.0,0.0,0.0,0.0,0.0,0.0,0.0
1646244538.6404128,6496,1646244538,640163181,,0.0,0.0,0.0,0.0,0.0,0.0,0.0,0.0,0.0,0.0,0.0,0.0,0.0,-0.0067235990427434444,-0.1933148056268692,0.008297095075249672,0.0,0.0,0.0,0.0,0.0,0.0,0.0,0.0,0.0,-0.12025640904903412,0.01794871874153614,9.344101905822754,0.0,0.0,0.0,0.0,0.0,0.0,0.0,0.0,0.0
1646244538.6427078,6497,1646244538,642381510,,0.0,0.0,0.0,0.0,0.0,0.0,0.0,0.0,0.0,0.0,0.0,0.0,0.0,-0.0077888634987175465,-0.1794663667678833,0.009362359531223774,0.0,0.0,0.0,0.0,0.0,0.0,0.0,0.0,0.0,-0.1238461583852768,-0.1148717999458313,9.24179458618164,0.0,0.0,0.0,0.0,0.0,0.0,0.0,0.0,0.0
1646244538.6448104,6498,1646244538,644537877,,0.0,0.0,0.0,0.0,0.0,0.0,0.0,0.0,0.0,0.0,0.0,0.0,0.0,-0.020572034642100334,-0.1847926825284958,0.002970772795379162,0.0,0.0,0.0,0.0,0.0,0.0,0.0,0.0,0.0,-0.028717949986457825,0.26923078298568726,9.636667251586914,0.0,0.0,0.0,0.0,0.0,0.0,0.0,0.0,0.0
1646244538.6469378,6499,1646244538,646708241,,0.0,0.0,0.0,0.0,0.0,0.0,0.0,0.0,0.0,0.0,0.0,0.0,0.0,0.003929044120013714,-0.18053163588047028,0.018949739634990692,0.0,0.0,0.0,0.0,0.0,0.0,0.0,0.0,0.0,-0.17230769991874695,-0.025128206238150597,9.177179336547852,0.0,0.0,0.0,0.0,0.0,0.0,0.0,0.0,0.0
1646244538.649194,6500,1646244538,648882524,,0.0,0.0,0.0,0.0,0.0,0.0,0.0,0.0,0.0,0.0,0.0,0.0,0.0,-0.0077888634987175465,-0.1698789894580841,0.010427623987197876,0.0,0.0,0.0,0.0,0.0,0.0,0.0,0.0,0.0,-0.08615384995937347,0.2979487180709839,9.586410522460938,0.0,0.0,0.0,0.0,0.0,0.0,0.0,0.0,0.0
1646244538.6514156,6501,1646244538,651054393,,0.0,0.0,0.0,0.0,0.0,0.0,0.0,0.0,0.0,0.0,0.0,0.0,0.0,-0.0013972773449495435,-0.16348740458488464,0.02640658989548683,0.0,0.0,0.0,0.0,0.0,0.0,0.0,0.0,0.0,0.06820512562990189,-0.2476923167705536,9.022820472717285,0.0,0.0,0.0,0.0,0.0,0.0,0.0,0.0,0.0
1646244538.6536064,6502,1646244538,653224313,,0.0,0.0,0.0,0.0,0.0,0.0,0.0,0.0,0.0,0.0,0.0,0.0,0.0,-0.0013972773449495435,-0.1560305655002594,0.009362359531223774,0.0,0.0,0.0,0.0,0.0,0.0,0.0,0.0,0.0,0.03410256281495094,0.2566666603088379,9.288461685180664,0.0,0.0,0.0,0.0,0.0,0.0,0.0,0.0,0.0
1646244538.6556559,6503,1646244538,655378236,,0.0,0.0,0.0,0.0,0.0,0.0,0.0,0.0,0.0,0.0,0.0,0.0,0.0,-0.0035278063733130693,-0.10702838748693466,0.004036037251353264,0.0,0.0,0.0,0.0,0.0,0.0,0.0,0.0,0.0,0.12025640904903412,0.2656410336494446,8.796667098999023,0.0,0.0,0.0,0.0,0.0,0.0,0.0,0.0,0.0
1646244538.6578755,6504,1646244538,657595602,,0.0,0.0,0.0,0.0,0.0,0.0,0.0,0.0,0.0,0.0,0.0,0.0,0.0,-0.016310978680849075,-0.09211468696594238,0.0008402442326769233,0.0,0.0,0.0,0.0,0.0,0.0,0.0,0.0,0.0,0.1561538577079773,-0.11846154183149338,8.767949104309082,0.0,0.0,0.0,0.0,0.0,0.0,0.0,0.0,0.0
1646244538.660018,6505,1646244538,659761979,,0.0,0.0,0.0,0.0,0.0,0.0,0.0,0.0,0.0,0.0,0.0,0.0,0.0,0.004994308575987816,-0.08465784043073654,0.02001500315964222,0.0,0.0,0.0,0.0,0.0,0.0,0.0,0.0,0.0,0.1058974415063858,0.36076924204826355,8.934871673583984,0.0,0.0,0.0,0.0,0.0,0.0,0.0,0.0,0.0
1646244538.662177,6506,1646244538,661941695,,0.0,0.0,0.0,0.0,0.0,0.0,0.0,0.0,0.0,0.0,0.0,0.0,0.0,-0.016310978680849075,-0.0633525550365448,0.025341326370835304,0.0,0.0,0.0,0.0,0.0,0.0,0.0,0.0,0.0,0.2387179583311081,-0.09692308306694031,8.988718032836914,0.0,0.0,0.0,0.0,0.0,0.0,0.0,0.0,0.0
1646244538.664461,6507,1646244538,664139348,,0.0,0.0,0.0,0.0,0.0,0.0,0.0,0.0,0.0,0.0,0.0,0.0,0.0,0.008190101943910122,-0.06015676259994507,-0.00022502047067973763,0.0,0.0,0.0,0.0,0.0,0.0,0.0,0.0,0.0,0.023333333432674408,0.3266666829586029,8.767949104309082,0.0,0.0,0.0,0.0,0.0,0.0,0.0,0.0,0.0
1646244538.6676812,6508,1646244538,666353482,,0.0,0.0,0.0,0.0,0.0,0.0,0.0,0.0,0.0,0.0,0.0,0.0,0.0,-0.014180450700223446,-0.026068301871418953,0.03386344015598297,0.0,0.0,0.0,0.0,0.0,0.0,0.0,0.0,0.0,0.2656410336494446,-0.12923076748847961,8.687179565429688,0.0,0.0,0.0,0.0,0.0,0.0,0.0,0.0,0.0
1646244538.668725,6509,1646244538,668513674,,0.0,0.0,0.0,0.0,0.0,0.0,0.0,0.0,0.0,0.0,0.0,0.0,0.0,-0.009919392876327038,-0.020741978660225868,0.04238555580377579,0.0,0.0,0.0,0.0,0.0,0.0,0.0,0.0,0.0,0.3643589913845062,0.32487180829048157,8.782307624816895,0.0,0.0,0.0,0.0,0.0,0.0,0.0,0.0,0.0
1646244538.6709208,6510,1646244538,670697919,,0.0,0.0,0.0,0.0,0.0,0.0,0.0,0.0,0.0,0.0,0.0,0.0,0.0,-0.013115186244249344,0.0016285729361698031,0.008297095075249672,0.0,0.0,0.0,0.0,0.0,0.0,0.0,0.0,0.0,0.5958974361419678,-0.14538460969924927,8.531025886535645,0.0,0.0,0.0,0.0,0.0,0.0,0.0,0.0,0.0
1646244538.6731806,6511,1646244538,672853352,,0.0,0.0,0.0,0.0,0.0,0.0,0.0,0.0,0.0,0.0,0.0,0.0,0.0,-0.017376242205500603,-0.0005019548698328435,0.03066764585673809,0.0,0.0,0.0,0.0,0.0,0.0,0.0,0.0,0.0,0.49000000953674316,0.30153846740722656,8.780512809753418,0.0,0.0,0.0,0.0,0.0,0.0,0.0,0.0,0.0
1646244538.6752467,6512,1646244538,675014852,,0.0,0.0,0.0,0.0,0.0,0.0,0.0,0.0,0.0,0.0,0.0,0.0,0.0,-0.005658335518091917,0.015477010980248451,-0.005551342852413654,0.0,0.0,0.0,0.0,0.0,0.0,0.0,0.0,0.0,0.5707692503929138,-0.010769231244921684,8.6620512008667,0.0,0.0,0.0,0.0,0.0,0.0,0.0,0.0,0.0
1646244538.6773922,6513,1646244538,677172047,,0.0,0.0,0.0,0.0,0.0,0.0,0.0,0.0,0.0,0.0,0.0,0.0,0.0,-0.026963621377944946,0.028260184451937675,0.013623417355120182,0.0,0.0,0.0,0.0,0.0,0.0,0.0,0.0,0.0,0.4971795082092285,-0.3123077154159546,8.882821083068848,0.0,0.0,0.0,0.0,0.0,0.0,0.0,0.0,0.0
1646244538.6796477,6514,1646244538,679368732,,0.0,0.0,0.0,0.0,0.0,0.0,0.0,0.0,0.0,0.0,0.0,0.0,0.0,-0.023767828941345215,0.046369679272174835,0.009362359531223774,0.0,0.0,0.0,0.0,0.0,0.0,0.0,0.0,0.0,0.6066666841506958,0.15256410837173462,9.117948532104492,0.0,0.0,0.0,0.0,0.0,0.0,0.0,0.0,0.0
1646244538.6818442,6515,1646244538,681549069,,0.0,0.0,0.0,0.0,0.0,0.0,0.0,0.0,0.0,0.0,0.0,0.0,0.0,-0.022702563554048538,0.03678229823708534,0.024276060983538628,0.0,0.0,0.0,0.0,0.0,0.0,0.0,0.0,0.0,0.43794873356819153,-0.21717949211597443,8.800256729125977,0.0,0.0,0.0,0.0,0.0,0.0,0.0,0.0,0.0
1646244538.6840105,6516,1646244538,683710266,,0.0,0.0,0.0,0.0,0.0,0.0,0.0,0.0,0.0,0.0,0.0,0.0,0.0,-0.024833092465996742,0.07193602621555328,0.006166566163301468,0.0,0.0,0.0,0.0,0.0,0.0,0.0,0.0,0.0,0.6964102983474731,0.1238461583852768,9.144871711730957,0.0,0.0,0.0,0.0,0.0,0.0,0.0,0.0,0.0
1646244538.6861403,6517,1646244538,685878234,,0.0,0.0,0.0,0.0,0.0,0.0,0.0,0.0,0.0,0.0,0.0,0.0,0.0,-0.03974679112434387,0.09111078828573227,0.04132029414176941,0.0,0.0,0.0,0.0,0.0,0.0,0.0,0.0,0.0,0.5366666913032532,-0.28179487586021423,9.062308311462402,0.0,0.0,0.0,0.0,0.0,0.0,0.0,0.0,0.0
1646244538.688299,6518,1646244538,688066967,,0.0,0.0,0.0,0.0,0.0,0.0,0.0,0.0,0.0,0.0,0.0,0.0,0.0,-0.0035278063733130693,0.05702231824398041,-0.01087766420096159,0.0,0.0,0.0,0.0,0.0,0.0,0.0,0.0,0.0,0.5420513153076172,0.1148717999458313,9.277692794799805,0.0,0.0,0.0,0.0,0.0,0.0,0.0,0.0,0.0
1646244538.6906283,6519,1646244538,690334988,,0.0,0.0,0.0,0.0,0.0,0.0,0.0,0.0,0.0,0.0,0.0,0.0,0.0,-0.023767828941345215,0.09643710404634476,0.022145532071590424,0.0,0.0,0.0,0.0,0.0,0.0,0.0,0.0,0.0,0.6407692432403564,-0.1148717999458313,9.003076553344727,0.0,0.0,0.0,0.0,0.0,0.0,0.0,0.0,0.0
1646244538.6927192,6520,1646244538,692521836,,0.0,0.0,0.0,0.0,0.0,0.0,0.0,0.0,0.0,0.0,0.0,0.0,0.0,-0.009919392876327038,0.08471919596195221,0.029602382332086563,0.0,0.0,0.0,0.0,0.0,0.0,0.0,0.0,0.0,0.6246154308319092,0.1058974415063858,9.116153717041016,0.0,0.0,0.0,0.0,0.0,0.0,0.0,0.0,0.0
1646244538.6950827,6521,1646244538,694768006,,0.0,0.0,0.0,0.0,0.0,0.0,0.0,0.0,0.0,0.0,0.0,0.0,0.0,0.0007332512177526951,0.09217604994773865,0.022145532071590424,0.0,0.0,0.0,0.0,0.0,0.0,0.0,0.0,0.0,0.5851281881332397,-0.14358974993228912,9.13769245147705,0.0,0.0,0.0,0.0,0.0,0.0,0.0,0.0,0.0
1646244538.6972609,6522,1646244538,696979789,,0.0,0.0,0.0,0.0,0.0,0.0,0.0,0.0,0.0,0.0,0.0,0.0,0.0,-0.009919392876327038,0.09217604994773865,0.01681920886039734,0.0,0.0,0.0,0.0,0.0,0.0,0.0,0.0,0.0,0.4953846335411072,0.36615386605262756,9.220256805419922,0.0,0.0,0.0,0.0,0.0,0.0,0.0,0.0,0.0
1646244538.6995313,6523,1646244538,699183505,,0.0,0.0,0.0,0.0,0.0,0.0,0.0,0.0,0.0,0.0,0.0,0.0,0.0,0.030560653656721115,0.10495921224355698,-0.0012902843300253153,0.0,0.0,0.0,0.0,0.0,0.0,0.0,0.0,0.0,0.43974360823631287,0.37871795892715454,8.746410369873047,0.0,0.0,0.0,0.0,0.0,0.0,0.0,0.0,0.0
1646244538.70164,6524,1646244538,701373826,,0.0,0.0,0.0,0.0,0.0,0.0,0.0,0.0,0.0,0.0,0.0,0.0,0.0,0.03162591904401779,0.11667712032794952,0.025341326370835304,0.0,0.0,0.0,0.0,0.0,0.0,0.0,0.0,0.0,0.4217948913574219,-0.45769232511520386,10.525128364562988,0.0,0.0,0.0,0.0,0.0,0.0,0.0,0.0,0.0
1646244538.7038312,6525,1646244538,703593216,,0.0,0.0,0.0,0.0,0.0,0.0,0.0,0.0,0.0,0.0,0.0,0.0,0.0,0.023103805258870125,0.1369171440601349,0.039189763367176056,0.0,0.0,0.0,0.0,0.0,0.0,0.0,0.0,0.0,0.5151281952857971,0.1382051259279251,7.674871921539307,0.0,0.0,0.0,0.0,0.0,0.0,0.0,0.0,0.0
1646244538.7060204,6526,1646244538,705765516,,0.0,0.0,0.0,0.0,0.0,0.0,0.0,0.0,0.0,0.0,0.0,0.0,0.0,0.02097327448427677,0.13478662073612213,0.03386344015598297,0.0,0.0,0.0,0.0,0.0,0.0,0.0,0.0,0.0,0.21000000834465027,-0.24230769276618958,10.246922492980957,0.0,0.0,0.0,0.0,0.0,0.0,0.0,0.0,0.0
1646244538.7091029,6527,1646244538,708013220,,0.0,0.0,0.0,0.0,0.0,0.0,0.0,0.0,0.0,0.0,0.0,0.0,0.0,0.023103805258870125,0.13372135162353516,-0.004486078396439552,0.0,0.0,0.0,0.0,0.0,0.0,0.0,0.0,0.0,0.24589744210243225,0.35179489850997925,9.685128211975098,0.0,0.0,0.0,0.0,0.0,0.0,0.0,0.0,0.0
1646244538.7103717,6528,1646244538,710204811,,0.0,0.0,0.0,0.0,0.0,0.0,0.0,0.0,0.0,0.0,0.0,0.0,0.0,0.04334382712841034,0.15822245180606842,0.011492888443171978,0.0,0.0,0.0,0.0,0.0,0.0,0.0,0.0,0.0,0.3643589913845062,-0.21717949211597443,8.534615516662598,0.0,0.0,0.0,0.0,0.0,0.0,0.0,0.0,0.0
1646244538.7127237,6529,1646244538,712366156,,0.0,0.0,0.0,0.0,0.0,0.0,0.0,0.0,0.0,0.0,0.0,0.0,0.0,0.038017503917217255,0.18591931462287903,0.039189763367176056,0.0,0.0,0.0,0.0,0.0,0.0,0.0,0.0,0.0,0.22435897588729858,-0.5510256290435791,9.70846176147461,0.0,0.0,0.0,0.0,0.0,0.0,0.0,0.0,0.0
1646244538.7148428,6530,1646244538,714520901,,0.0,0.0,0.0,0.0,0.0,0.0,0.0,0.0,0.0,0.0,0.0,0.0,0.0,0.04653962329030037,0.18165826797485352,-0.0012902843300253153,0.0,0.0,0.0,0.0,0.0,0.0,0.0,0.0,0.0,0.3212820589542389,0.08794872462749481,10.211026191711426,0.0,0.0,0.0,0.0,0.0,0.0,0.0,0.0,0.0
1646244538.7169096,6531,1646244538,716678576,,0.0,0.0,0.0,0.0,0.0,0.0,0.0,0.0,0.0,0.0,0.0,0.0,0.0,0.05186593905091286,0.18059299886226654,0.014688681811094284,0.0,0.0,0.0,0.0,0.0,0.0,0.0,0.0,0.0,0.18487180769443512,-0.6282051801681519,9.012051582336426,0.0,0.0,0.0,0.0,0.0,0.0,0.0,0.0,0.0
1646244538.7191405,6532,1646244538,718855907,,0.0,0.0,0.0,0.0,0.0,0.0,0.0,0.0,0.0,0.0,0.0,0.0,0.0,0.0220385380089283,0.19550667703151703,0.006166566163301468,0.0,0.0,0.0,0.0,0.0,0.0,0.0,0.0,0.0,0.4971795082092285,-0.16333334147930145,9.620512962341309,0.0,0.0,0.0,0.0,0.0,0.0,0.0,0.0,0.0
1646244538.7217124,6533,1646244538,721025107,,0.0,0.0,0.0,0.0,0.0,0.0,0.0,0.0,0.0,0.0,0.0,0.0,0.0,0.038017503917217255,0.20509406924247742,0.01681920886039734,0.0,0.0,0.0,0.0,0.0,0.0,0.0,0.0,0.0,0.04307692497968674,-0.3069230914115906,9.568461418151855,0.0,0.0,0.0,0.0,0.0,0.0,0.0,0.0,0.0
1646244538.7233894,6534,1646244538,723200271,,0.0,0.0,0.0,0.0,0.0,0.0,0.0,0.0,0.0,0.0,0.0,0.0,0.0,-0.02909415028989315,0.196571946144104,0.01255815289914608,0.0,0.0,0.0,0.0,0.0,0.0,0.0,0.0,0.0,0.36076924204826355,0.18666666746139526,9.740769386291504,0.0,0.0,0.0,0.0,0.0,0.0,0.0,0.0,0.0
1646244538.725769,6535,1646244538,725406828,,0.0,0.0,0.0,0.0,0.0,0.0,0.0,0.0,0.0,0.0,0.0,0.0,0.0,-0.0003320134710520506,0.22746461629867554,0.005101301707327366,0.0,0.0,0.0,0.0,0.0,0.0,0.0,0.0,0.0,0.2979487180709839,0.10230769217014313,9.189743995666504,0.0,0.0,0.0,0.0,0.0,0.0,0.0,0.0,0.0
1646244538.7279313,6536,1646244538,727636416,,0.0,0.0,0.0,0.0,0.0,0.0,0.0,0.0,0.0,0.0,0.0,0.0,0.0,-0.02589835785329342,0.2061593234539032,0.014688681811094284,0.0,0.0,0.0,0.0,0.0,0.0,0.0,0.0,0.0,0.24948717653751373,0.05384615436196327,9.803589820861816,0.0,0.0,0.0,0.0,0.0,0.0,0.0,0.0,0.0
1646244538.7300675,6537,1646244538,729793037,,0.0,0.0,0.0,0.0,0.0,0.0,0.0,0.0,0.0,0.0,0.0,0.0,0.0,-0.034420475363731384,0.2434435784816742,-0.01087766420096159,0.0,0.0,0.0,0.0,0.0,0.0,0.0,0.0,0.0,0.33743590116500854,-0.4235897660255432,9.313590049743652,0.0,0.0,0.0,0.0,0.0,0.0,0.0,0.0,0.0
1646244538.732264,6538,1646244538,732001715,,0.0,0.0,0.0,0.0,0.0,0.0,0.0,0.0,0.0,0.0,0.0,0.0,0.0,-0.028028886765241623,0.22639934718608856,0.011492888443171978,0.0,0.0,0.0,0.0,0.0,0.0,0.0,0.0,0.0,0.26025640964508057,0.2656410336494446,9.593589782714844,0.0,0.0,0.0,0.0,0.0,0.0,0.0,0.0,0.0
1646244538.7344735,6539,1646244538,734238932,,0.0,0.0,0.0,0.0,0.0,0.0,0.0,0.0,0.0,0.0,0.0,0.0,0.0,-0.016310978680849075,0.2200077623128891,-0.005551342852413654,0.0,0.0,0.0,0.0,0.0,0.0,0.0,0.0,0.0,-0.0412820540368557,0.16333334147930145,9.886154174804688,0.0,0.0,0.0,0.0,0.0,0.0,0.0,0.0,0.0
1646244538.7366893,6540,1646244538,736401462,,0.0,0.0,0.0,0.0,0.0,0.0,0.0,0.0,0.0,0.0,0.0,0.0,0.0,-0.014180450700223446,0.23918253183364868,0.005101301707327366,0.0,0.0,0.0,0.0,0.0,0.0,0.0,0.0,0.0,0.026923077180981636,-0.21717949211597443,9.536153793334961,0.0,0.0,0.0,0.0,0.0,0.0,0.0,0.0,0.0
1646244538.7389748,6541,1646244538,738629670,,0.0,0.0,0.0,0.0,0.0,0.0,0.0,0.0,0.0,0.0,0.0,0.0,0.0,0.004994308575987816,0.22746461629867554,0.013623417355120182,0.0,0.0,0.0,0.0,0.0,0.0,0.0,0.0,0.0,0.14897435903549194,0.08435897529125214,9.925641059875488,0.0,0.0,0.0,0.0,0.0,0.0,0.0,0.0,0.0
1646244538.7411685,6542,1646244538,740844787,,0.0,0.0,0.0,0.0,0.0,0.0,0.0,0.0,0.0,0.0,0.0,0.0,0.0,0.018842745572328568,0.2242688238620758,0.03492870554327965,0.0,0.0,0.0,0.0,0.0,0.0,0.0,0.0,0.0,0.32307693362236023,-0.17230769991874695,9.629487037658691,0.0,0.0,0.0,0.0,0.0,0.0,0.0,0.0,0.0
1646244538.7433026,6543,1646244538,742999623,,0.0,0.0,0.0,0.0,0.0,0.0,0.0,0.0,0.0,0.0,0.0,0.0,0.0,0.001798515673726797,0.2146814465522766,-0.024726100265979767,0.0,0.0,0.0,0.0,0.0,0.0,0.0,0.0,0.0,0.09692308306694031,0.15974359214305878,9.701282501220703,0.0,0.0,0.0,0.0,0.0,0.0,0.0,0.0,0.0
1646244538.745497,6544,1646244538,745176224,,0.0,0.0,0.0,0.0,0.0,0.0,0.0,0.0,0.0,0.0,0.0,0.0,0.0,0.048670150339603424,0.19550667703151703,0.037059236317873,0.0,0.0,0.0,0.0,0.0,0.0,0.0,0.0,0.0,0.2853846251964569,-0.09871795028448105,9.808974266052246,0.0,0.0,0.0,0.0,0.0,0.0,0.0,0.0,0.0
1646244538.7475584,6545,1646244538,747330892,,0.0,0.0,0.0,0.0,0.0,0.0,0.0,0.0,0.0,0.0,0.0,0.0,0.0,0.03375644609332085,0.1923108845949173,-0.005551342852413654,0.0,0.0,0.0,0.0,0.0,0.0,0.0,0.0,0.0,0.24051281809806824,0.2064102590084076,10.374359130859375,0.0,0.0,0.0,0.0,0.0,0.0,0.0,0.0,0.0
1646244538.750926,6546,1646244538,749491498,,0.0,0.0,0.0,0.0,0.0,0.0,0.0,0.0,0.0,0.0,0.0,0.0,0.0,0.030560653656721115,0.16248349845409393,0.010427623987197876,0.0,0.0,0.0,0.0,0.0,0.0,0.0,0.0,0.0,0.04307692497968674,0.26384615898132324,9.9399995803833,0.0,0.0,0.0,0.0,0.0,0.0,0.0,0.0,0.0
1646244538.7518783,6547,1646244538,751653804,,0.0,0.0,0.0,0.0,0.0,0.0,0.0,0.0,0.0,0.0,0.0,0.0,0.0,0.026299597695469856,0.16248349845409393,0.022145532071590424,0.0,0.0,0.0,0.0,0.0,0.0,0.0,0.0,0.0,-0.15794873237609863,-0.29615384340286255,9.830512046813965,0.0,0.0,0.0,0.0,0.0,0.0,0.0,0.0,0.0
1646244538.7541656,6548,1646244538,753902806,,0.0,0.0,0.0,0.0,0.0,0.0,0.0,0.0,0.0,0.0,0.0,0.0,0.0,0.013516423292458057,0.12200344353914261,-0.0023555487859994173,0.0,0.0,0.0,0.0,0.0,0.0,0.0,0.0,0.0,-0.09333333373069763,-0.023333333432674408,11.1874361038208,0.0,0.0,0.0,0.0,0.0,0.0,0.0,0.0,0.0
1646244538.756389,6549,1646244538,756056527,,0.0,0.0,0.0,0.0,0.0,0.0,0.0,0.0,0.0,0.0,0.0,0.0,0.0,0.004994308575987816,0.11241606622934341,-0.015138722956180573,0.0,0.0,0.0,0.0,0.0,0.0,0.0,0.0,0.0,0.2028205245733261,-0.14000000059604645,10.95589828491211,0.0,0.0,0.0,0.0,0.0,0.0,0.0,0.0,0.0
1646244538.7584755,6550,1646244538,758241402,,0.0,0.0,0.0,0.0,0.0,0.0,0.0,0.0,0.0,0.0,0.0,0.0,0.0,0.00712483748793602,0.09643710404634476,0.0019055086886510253,0.0,0.0,0.0,0.0,0.0,0.0,0.0,0.0,0.0,-0.0412820540368557,0.3033333420753479,10.758460998535156,0.0,0.0,0.0,0.0,0.0,0.0,0.0,0.0,0.0
1646244538.760688,6551,1646244538,760437014,,0.0,0.0,0.0,0.0,0.0,0.0,0.0,0.0,0.0,0.0,0.0,0.0,0.0,-0.005658335518091917,0.032521240413188934,0.002970772795379162,0.0,0.0,0.0,0.0,0.0,0.0,0.0,0.0,0.0,-0.1884615421295166,-0.21000000834465027,11.50153923034668,0.0,0.0,0.0,0.0,0.0,0.0,0.0,0.0,0.0
1646244538.7629123,6552,1646244538,762595870,,0.0,0.0,0.0,0.0,0.0,0.0,0.0,0.0,0.0,0.0,0.0,0.0,0.0,-0.024833092465996742,0.06447917222976685,-0.0076818703673779964,0.0,0.0,0.0,0.0,0.0,0.0,0.0,0.0,0.0,-0.2620512843132019,0.3266666829586029,11.478205680847168,0.0,0.0,0.0,0.0,0.0,0.0,0.0,0.0,0.0
1646244538.7650928,6553,1646244538,764813645,,0.0,0.0,0.0,0.0,0.0,0.0,0.0,0.0,0.0,0.0,0.0,0.0,0.0,-0.0077888634987175465,0.027194919064641,0.010427623987197876,0.0,0.0,0.0,0.0,0.0,0.0,0.0,0.0,0.0,-0.3176923394203186,0.03410256281495094,10.842820167541504,0.0,0.0,0.0,0.0,0.0,0.0,0.0,0.0,0.0
1646244538.767172,6554,1646244538,766971014,,0.0,0.0,0.0,0.0,0.0,0.0,0.0,0.0,0.0,0.0,0.0,0.0,0.0,-0.009919392876327038,-0.0005019548698328435,-0.01939977891743183,0.0,0.0,0.0,0.0,0.0,0.0,0.0,0.0,0.0,-0.5815384387969971,0.003589743748307228,11.426154136657715,0.0,0.0,0.0,0.0,0.0,0.0,0.0,0.0,0.0
1646244538.7693775,6555,1646244538,769096250,,0.0,0.0,0.0,0.0,0.0,0.0,0.0,0.0,0.0,0.0,0.0,0.0,0.0,0.004994308575987816,-0.02393777295947075,-0.008747135289013386,0.0,0.0,0.0,0.0,0.0,0.0,0.0,0.0,0.0,-0.4325641095638275,-0.05025641247630119,11.314872741699219,0.0,0.0,0.0,0.0,0.0,0.0,0.0,0.0,0.0
1646244538.7714915,6556,1646244538,771249082,,0.0,0.0,0.0,0.0,0.0,0.0,0.0,0.0,0.0,0.0,0.0,0.0,0.0,0.0028637798968702555,-0.04098200052976608,-0.0162039864808321,0.0,0.0,0.0,0.0,0.0,0.0,0.0,0.0,0.0,-0.6964102983474731,0.1471794843673706,11.291539192199707,0.0,0.0,0.0,0.0,0.0,0.0,0.0,0.0,0.0
1646244538.7737803,6557,1646244538,773470071,,0.0,0.0,0.0,0.0,0.0,0.0,0.0,0.0,0.0,0.0,0.0,0.0,0.0,0.008190101943910122,-0.03885146975517273,-0.025791365653276443,0.0,0.0,0.0,0.0,0.0,0.0,0.0,0.0,0.0,-0.7358974814414978,0.2207692414522171,11.523077011108398,0.0,0.0,0.0,0.0,0.0,0.0,0.0,0.0,0.0
1646244538.7760568,6558,1646244538,775670288,,0.0,0.0,0.0,0.0,0.0,0.0,0.0,0.0,0.0,0.0,0.0,0.0,0.0,0.003929044120013714,-0.05589570105075836,-0.00022502047067973763,0.0,0.0,0.0,0.0,0.0,0.0,0.0,0.0,0.0,-0.8633333444595337,-0.08076923340559006,11.30589771270752,0.0,0.0,0.0,0.0,0.0,0.0,0.0,0.0,0.0
1646244538.7781174,6559,1646244538,777826091,,0.0,0.0,0.0,0.0,0.0,0.0,0.0,0.0,0.0,0.0,0.0,0.0,0.0,0.006059573031961918,-0.051634643226861954,-0.022595571354031563,0.0,0.0,0.0,0.0,0.0,0.0,0.0,0.0,0.0,-0.8328205347061157,0.30512821674346924,11.307692527770996,0.0,0.0,0.0,0.0,0.0,0.0,0.0,0.0,0.0
1646244538.780326,6560,1646244538,779999645,,0.0,0.0,0.0,0.0,0.0,0.0,0.0,0.0,0.0,0.0,0.0,0.0,0.0,-0.0013972773449495435,-0.07080940902233124,-0.018334513530135155,0.0,0.0,0.0,0.0,0.0,0.0,0.0,0.0,0.0,-0.936923086643219,-0.05743589997291565,10.954102516174316,0.0,0.0,0.0,0.0,0.0,0.0,0.0,0.0,0.0
1646244538.7825172,6561,1646244538,782256839,,0.0,0.0,0.0,0.0,0.0,0.0,0.0,0.0,0.0,0.0,0.0,0.0,0.0,0.001798515673726797,-0.047373585402965546,-0.005551342852413654,0.0,0.0,0.0,0.0,0.0,0.0,0.0,0.0,0.0,-0.9297435879707336,0.3679487407207489,11.009743690490723,0.0,0.0,0.0,0.0,0.0,0.0,0.0,0.0,0.0
1646244538.7846982,6562,1646244538,784417280,,0.0,0.0,0.0,0.0,0.0,0.0,0.0,0.0,0.0,0.0,0.0,0.0,0.0,0.0103206317871809,-0.07293993979692459,-0.04070506617426872,0.0,0.0,0.0,0.0,0.0,0.0,0.0,0.0,0.0,-0.6928205490112305,0.13461539149284363,10.711795806884766,0.0,0.0,0.0,0.0,0.0,0.0,0.0,0.0,0.0
1646244538.7867575,6563,1646244538,786558311,,0.0,0.0,0.0,0.0,0.0,0.0,0.0,0.0,0.0,0.0,0.0,0.0,0.0,0.0103206317871809,-0.07613572478294373,-0.009812399744987488,0.0,0.0,0.0,0.0,0.0,0.0,0.0,0.0,0.0,-0.6874359250068665,0.6587179899215698,10.797948837280273,0.0,0.0,0.0,0.0,0.0,0.0,0.0,0.0,0.0
1646244538.7890868,6564,1646244538,788824638,,0.0,0.0,0.0,0.0,0.0,0.0,0.0,0.0,0.0,0.0,0.0,0.0,0.0,0.02843012474477291,-0.06654834747314453,-0.06627141684293747,0.0,0.0,0.0,0.0,0.0,0.0,0.0,0.0,0.0,-0.5600000023841858,0.007179487496614456,10.257692337036133,0.0,0.0,0.0,0.0,0.0,0.0,0.0,0.0,0.0
1646244538.7919319,6565,1646244538,791040613,,0.0,0.0,0.0,0.0,0.0,0.0,0.0,0.0,0.0,0.0,0.0,0.0,0.0,-0.0035278063733130693,-0.07933151721954346,-0.0162039864808321,0.0,0.0,0.0,0.0,0.0,0.0,0.0,0.0,0.0,-0.6533333659172058,0.046666666865348816,10.701025009155273,0.0,0.0,0.0,0.0,0.0,0.0,0.0,0.0,0.0
1646244538.793409,6566,1646244538,793198839,,0.0,0.0,0.0,0.0,0.0,0.0,0.0,0.0,0.0,0.0,0.0,0.0,0.0,0.0103206317871809,-0.07933151721954346,-0.03431348130106926,0.0,0.0,0.0,0.0,0.0,0.0,0.0,0.0,0.0,-0.7646154165267944,0.33743590116500854,10.510769844055176,0.0,0.0,0.0,0.0,0.0,0.0,0.0,0.0,0.0
1646244538.795688,6567,1646244538,795428687,,0.0,0.0,0.0,0.0,0.0,0.0,0.0,0.0,0.0,0.0,0.0,0.0,0.0,0.015646953135728836,-0.07933151721954346,-0.017269250005483627,0.0,0.0,0.0,0.0,0.0,0.0,0.0,0.0,0.0,-0.6946154236793518,-0.014358974993228912,9.902307510375977,0.0,0.0,0.0,0.0,0.0,0.0,0.0,0.0,0.0
1646244538.797893,6568,1646244538,797625482,,0.0,0.0,0.0,0.0,0.0,0.0,0.0,0.0,0.0,0.0,0.0,0.0,0.0,-0.0003320134710520506,-0.07933151721954346,-0.030052425339818,0.0,0.0,0.0,0.0,0.0,0.0,0.0,0.0,0.0,-0.40205129981040955,0.3823077082633972,10.257692337036133,0.0,0.0,0.0,0.0,0.0,0.0,0.0,0.0,0.0
1646244538.8000076,6569,1646244538,799784875,,0.0,0.0,0.0,0.0,0.0,0.0,0.0,0.0,0.0,0.0,0.0,0.0,0.0,0.011385894380509853,-0.09637574851512909,-0.0162039864808321,0.0,0.0,0.0,0.0,0.0,0.0,0.0,0.0,0.0,-0.44871795177459717,0.04307692497968674,10.189486503601074,0.0,0.0,0.0,0.0,0.0,0.0,0.0,0.0,0.0
1646244538.802222,6570,1646244538,801942891,,0.0,0.0,0.0,0.0,0.0,0.0,0.0,0.0,0.0,0.0,0.0,0.0,0.0,-0.017376242205500603,-0.08998416364192963,-0.02046504244208336,0.0,0.0,0.0,0.0,0.0,0.0,0.0,0.0,0.0,-0.3858974575996399,0.21000000834465027,10.178717613220215,0.0,0.0,0.0,0.0,0.0,0.0,0.0,0.0,0.0
1646244538.8043447,6571,1646244538,804090654,,0.0,0.0,0.0,0.0,0.0,0.0,0.0,0.0,0.0,0.0,0.0,0.0,0.0,-0.030159417539834976,-0.1048978641629219,-0.018334513530135155,0.0,0.0,0.0,0.0,0.0,0.0,0.0,0.0,0.0,-0.4971795082092285,0.18487180769443512,10.011795043945312,0.0,0.0,0.0,0.0,0.0,0.0,0.0,0.0,0.0
1646244538.8065162,6572,1646244538,806241803,,0.0,0.0,0.0,0.0,0.0,0.0,0.0,0.0,0.0,0.0,0.0,0.0,0.0,-0.023767828941345215,-0.11555050313472748,-0.03750927746295929,0.0,0.0,0.0,0.0,0.0,0.0,0.0,0.0,0.0,-0.4038461744785309,-0.14179487526416779,9.663589477539062,0.0,0.0,0.0,0.0,0.0,0.0,0.0,0.0,0.0
1646244538.8087485,6573,1646244538,808413455,,0.0,0.0,0.0,0.0,0.0,0.0,0.0,0.0,0.0,0.0,0.0,0.0,0.0,-0.049334172159433365,-0.11555050313472748,-0.031117688864469528,0.0,0.0,0.0,0.0,0.0,0.0,0.0,0.0,0.0,-0.5043590068817139,0.028717949986457825,9.887948036193848,0.0,0.0,0.0,0.0,0.0,0.0,0.0,0.0,0.0
1646244538.810769,6574,1646244538,810595043,,0.0,0.0,0.0,0.0,0.0,0.0,0.0,0.0,0.0,0.0,0.0,0.0,0.0,-0.03335520997643471,-0.12939895689487457,-0.004486078396439552,0.0,0.0,0.0,0.0,0.0,0.0,0.0,0.0,0.0,-0.1794871836900711,0.11128205060958862,9.925641059875488,0.0,0.0,0.0,0.0,0.0,0.0,0.0,0.0,0.0
1646244538.813005,6575,1646244538,812715540,,0.0,0.0,0.0,0.0,0.0,0.0,0.0,0.0,0.0,0.0,0.0,0.0,0.0,-0.052529964596033096,-0.15922635793685913,-0.009812399744987488,0.0,0.0,0.0,0.0,0.0,0.0,0.0,0.0,0.0,-0.4146153926849365,0.14179487526416779,9.505640983581543,0.0,0.0,0.0,0.0,0.0,0.0,0.0,0.0,0.0
1646244538.815105,6576,1646244538,814883986,,0.0,0.0,0.0,0.0,0.0,0.0,0.0,0.0,0.0,0.0,0.0,0.0,0.0,-0.055725760757923126,-0.147508442401886,-0.00022502047067973763,0.0,0.0,0.0,0.0,0.0,0.0,0.0,0.0,0.0,-0.5205128192901611,-0.24589744210243225,9.65461540222168,0.0,0.0,0.0,0.0,0.0,0.0,0.0,0.0,0.0
1646244538.817272,6577,1646244538,817029987,,0.0,0.0,0.0,0.0,0.0,0.0,0.0,0.0,0.0,0.0,0.0,0.0,0.0,-0.028028886765241623,-0.1379210650920868,-0.015138722956180573,0.0,0.0,0.0,0.0,0.0,0.0,0.0,0.0,0.0,-0.5384615659713745,0.2064102590084076,9.916666030883789,0.0,0.0,0.0,0.0,0.0,0.0,0.0,0.0,0.0
1646244538.8195007,6578,1646244538,819189960,,0.0,0.0,0.0,0.0,0.0,0.0,0.0,0.0,0.0,0.0,0.0,0.0,0.0,-0.04613837972283363,-0.1656179279088974,0.00723183061927557,0.0,0.0,0.0,0.0,0.0,0.0,0.0,0.0,0.0,-0.38769233226776123,-0.12564103305339813,10.10692310333252,0.0,0.0,0.0,0.0,0.0,0.0,0.0,0.0,0.0
1646244538.821659,6579,1646244538,821397354,,0.0,0.0,0.0,0.0,0.0,0.0,0.0,0.0,0.0,0.0,0.0,0.0,0.0,-0.019506771117448807,-0.18159689009189606,-0.00022502047067973763,0.0,0.0,0.0,0.0,0.0,0.0,0.0,0.0,0.0,-0.32487180829048157,0.35538461804389954,8.963589668273926,0.0,0.0,0.0,0.0,0.0,0.0,0.0,0.0,0.0
1646244538.8239233,6580,1646244538,823612372,,0.0,0.0,0.0,0.0,0.0,0.0,0.0,0.0,0.0,0.0,0.0,0.0,0.0,-0.014180450700223446,-0.19438005983829498,-0.01407345850020647,0.0,0.0,0.0,0.0,0.0,0.0,0.0,0.0,0.0,-0.1328205168247223,0.1561538577079773,10.193077087402344,0.0,0.0,0.0,0.0,0.0,0.0,0.0,0.0,0.0
1646244538.8260643,6581,1646244538,825835119,,0.0,0.0,0.0,0.0,0.0,0.0,0.0,0.0,0.0,0.0,0.0,0.0,0.0,0.0028637798968702555,-0.18585795164108276,-0.00022502047067973763,0.0,0.0,0.0,0.0,0.0,0.0,0.0,0.0,0.0,-0.4128205180168152,0.24051281809806824,9.760512351989746,0.0,0.0,0.0,0.0,0.0,0.0,0.0,0.0,0.0
1646244538.8282335,6582,1646244538,828004092,,0.0,0.0,0.0,0.0,0.0,0.0,0.0,0.0,0.0,0.0,0.0,0.0,0.0,0.015646953135728836,-0.21035903692245483,0.00723183061927557,0.0,0.0,0.0,0.0,0.0,0.0,0.0,0.0,0.0,-0.2979487180709839,0.08615384995937347,8.513076782226562,0.0,0.0,0.0,0.0,0.0,0.0,0.0,0.0,0.0
1646244538.830435,6583,1646244538,830217642,,0.0,0.0,0.0,0.0,0.0,0.0,0.0,0.0,0.0,0.0,0.0,0.0,0.0,0.030560653656721115,-0.2305990606546402,-0.02366083674132824,0.0,0.0,0.0,0.0,0.0,0.0,0.0,0.0,0.0,-0.3769230842590332,0.16333334147930145,9.466153144836426,0.0,0.0,0.0,0.0,0.0,0.0,0.0,0.0,0.0
1646244538.8331733,6584,1646244538,832377106,,0.0,0.0,0.0,0.0,0.0,0.0,0.0,0.0,0.0,0.0,0.0,0.0,0.0,0.052931204438209534,-0.2263379991054535,-0.043900858610868454,0.0,0.0,0.0,0.0,0.0,0.0,0.0,0.0,0.0,-0.6874359250068665,0.01794871874153614,10.035127639770508,0.0,0.0,0.0,0.0,0.0,0.0,0.0,0.0,0.0
1646244538.8347294,6585,1646244538,834524483,,0.0,0.0,0.0,0.0,0.0,0.0,0.0,0.0,0.0,0.0,0.0,0.0,0.0,0.02949538826942444,-0.21142429113388062,0.035993970930576324,0.0,0.0,0.0,0.0,0.0,0.0,0.0,0.0,0.0,-0.23153845965862274,-0.1705128252506256,9.530769348144531,0.0,0.0,0.0,0.0,0.0,0.0,0.0,0.0,0.0
1646244538.8371284,6586,1646244538,836701522,,0.0,0.0,0.0,0.0,0.0,0.0,0.0,0.0,0.0,0.0,0.0,0.0,0.0,0.02843012474477291,-0.23699064552783966,-0.017269250005483627,0.0,0.0,0.0,0.0,0.0,0.0,0.0,0.0,0.0,-0.5205128192901611,0.7143589854240417,9.676154136657715,0.0,0.0,0.0,0.0,0.0,0.0,0.0,0.0,0.0
1646244538.8391566,6587,1646244538,838849685,,0.0,0.0,0.0,0.0,0.0,0.0,0.0,0.0,0.0,0.0,0.0,0.0,0.0,0.011385894380509853,-0.23379485309123993,0.009362359531223774,0.0,0.0,0.0,0.0,0.0,0.0,0.0,0.0,0.0,-0.4630769193172455,0.01974359154701233,9.622307777404785,0.0,0.0,0.0,0.0,0.0,0.0,0.0,0.0,0.0
1646244538.8413444,6588,1646244538,841041207,,0.0,0.0,0.0,0.0,0.0,0.0,0.0,0.0,0.0,0.0,0.0,0.0,0.0,0.015646953135728836,-0.20077165961265564,0.0232107974588871,0.0,0.0,0.0,0.0,0.0,0.0,0.0,0.0,0.0,-0.1741025745868683,0.1794871836900711,9.870000839233398,0.0,0.0,0.0,0.0,0.0,0.0,0.0,0.0,0.0
1646244538.8436444,6589,1646244538,843258568,,0.0,0.0,0.0,0.0,0.0,0.0,0.0,0.0,0.0,0.0,0.0,0.0,0.0,-0.017376242205500603,-0.22207693755626678,-0.009812399744987488,0.0,0.0,0.0,0.0,0.0,0.0,0.0,0.0,0.0,-0.11846154183149338,0.5205128192901611,9.299230575561523,0.0,0.0,0.0,0.0,0.0,0.0,0.0,0.0,0.0
1646244538.8458204,6590,1646244538,845485860,,0.0,0.0,0.0,0.0,0.0,0.0,0.0,0.0,0.0,0.0,0.0,0.0,0.0,0.008190101943910122,-0.19118426740169525,0.013623417355120182,0.0,0.0,0.0,0.0,0.0,0.0,0.0,0.0,0.0,-0.1148717999458313,-0.0412820540368557,9.49128246307373,0.0,0.0,0.0,0.0,0.0,0.0,0.0,0.0,0.0
1646244538.847912,6591,1646244538,847659152,,0.0,0.0,0.0,0.0,0.0,0.0,0.0,0.0,0.0,0.0,0.0,0.0,0.0,-0.01844150573015213,-0.1933148056268692,-0.0012902843300253153,0.0,0.0,0.0,0.0,0.0,0.0,0.0,0.0,0.0,-0.13461539149284363,0.18307693302631378,9.281281471252441,0.0,0.0,0.0,0.0,0.0,0.0,0.0,0.0,0.0
1646244538.8501408,6592,1646244538,849812508,,0.0,0.0,0.0,0.0,0.0,0.0,0.0,0.0,0.0,0.0,0.0,0.0,0.0,-0.01098465733230114,-0.1517695039510727,0.008297095075249672,0.0,0.0,0.0,0.0,0.0,0.0,0.0,0.0,0.0,-0.030512820929288864,0.02153846248984337,9.20769214630127,0.0,0.0,0.0,0.0,0.0,0.0,0.0,0.0,0.0
1646244538.852291,6593,1646244538,852027218,,0.0,0.0,0.0,0.0,0.0,0.0,0.0,0.0,0.0,0.0,0.0,0.0,0.0,-0.02909415028989315,-0.18585795164108276,-0.017269250005483627,0.0,0.0,0.0,0.0,0.0,0.0,0.0,0.0,0.0,-0.21897436678409576,0.3805128335952759,9.426666259765625,0.0,0.0,0.0,0.0,0.0,0.0,0.0,0.0,0.0
1646244538.8544998,6594,1646244538,854261970,,0.0,0.0,0.0,0.0,0.0,0.0,0.0,0.0,0.0,0.0,0.0,0.0,0.0,-0.01844150573015213,-0.14963898062705994,0.0019055086886510253,0.0,0.0,0.0,0.0,0.0,0.0,0.0,0.0,0.0,-0.0412820540368557,0.3858974575996399,9.087435722351074,0.0,0.0,0.0,0.0,0.0,0.0,0.0,0.0,0.0
1646244538.856634,6595,1646244538,856430556,,0.0,0.0,0.0,0.0,0.0,0.0,0.0,0.0,0.0,0.0,0.0,0.0,0.0,-0.022702563554048538,-0.11981156468391418,0.01575394533574581,0.0,0.0,0.0,0.0,0.0,0.0,0.0,0.0,0.0,0.16692309081554413,-0.19384616613388062,8.909743309020996,0.0,0.0,0.0,0.0,0.0,0.0,0.0,0.0,0.0
1646244538.8588784,6596,1646244538,858598526,,0.0,0.0,0.0,0.0,0.0,0.0,0.0,0.0,0.0,0.0,0.0,0.0,0.0,-0.0013972773449495435,-0.1048978641629219,-0.0023555487859994173,0.0,0.0,0.0,0.0,0.0,0.0,0.0,0.0,0.0,0.05384615436196327,0.3446153998374939,8.947436332702637,0.0,0.0,0.0,0.0,0.0,0.0,0.0,0.0,0.0
1646244538.8609946,6597,1646244538,860776945,,0.0,0.0,0.0,0.0,0.0,0.0,0.0,0.0,0.0,0.0,0.0,0.0,0.0,0.004994308575987816,-0.09424521774053574,0.014688681811094284,0.0,0.0,0.0,0.0,0.0,0.0,0.0,0.0,0.0,0.11846154183149338,-0.02153846248984337,8.91333293914795,0.0,0.0,0.0,0.0,0.0,0.0,0.0,0.0,0.0
1646244538.86313,6598,1646244538,862905718,,0.0,0.0,0.0,0.0,0.0,0.0,0.0,0.0,0.0,0.0,0.0,0.0,0.0,-0.04081205651164055,-0.07187467068433762,0.0019055086886510253,0.0,0.0,0.0,0.0,0.0,0.0,0.0,0.0,0.0,0.14000000059604645,0.26025640964508057,8.733845710754395,0.0,0.0,0.0,0.0,0.0,0.0,0.0,0.0,0.0
1646244538.8651721,6599,1646244538,865002851,,0.0,0.0,0.0,0.0,0.0,0.0,0.0,0.0,0.0,0.0,0.0,0.0,0.0,0.0028637798968702555,-0.044177792966365814,0.002970772795379162,0.0,0.0,0.0,0.0,0.0,0.0,0.0,0.0,0.0,0.19205129146575928,0.22435897588729858,8.872051239013672,0.0,0.0,0.0,0.0,0.0,0.0,0.0,0.0,0.0
1646244538.8672485,6600,1646244538,867129459,,0.0,0.0,0.0,0.0,0.0,0.0,0.0,0.0,0.0,0.0,0.0,0.0,0.0,-0.019506771117448807,-0.02713356725871563,-0.0076818703673779964,0.0,0.0,0.0,0.0,0.0,0.0,0.0,0.0,0.0,0.40743592381477356,0.2746153771877289,8.872051239013672,0.0,0.0,0.0,0.0,0.0,0.0,0.0,0.0,0.0
1646244538.8694024,6601,1646244538,869238071,,0.0,0.0,0.0,0.0,0.0,0.0,0.0,0.0,0.0,0.0,0.0,0.0,0.0,-0.0077888634987175465,-0.02393777295947075,-0.024726100265979767,0.0,0.0,0.0,0.0,0.0,0.0,0.0,0.0,0.0,0.39846155047416687,-0.03769230842590332,8.699743270874023,0.0,0.0,0.0,0.0,0.0,0.0,0.0,0.0,0.0
1646244538.8716521,6602,1646244538,871344664,,0.0,0.0,0.0,0.0,0.0,0.0,0.0,0.0,0.0,0.0,0.0,0.0,0.0,-0.030159417539834976,0.0016285729361698031,0.021080268546938896,0.0,0.0,0.0,0.0,0.0,0.0,0.0,0.0,0.0,0.3769230842590332,0.31589746475219727,8.798460960388184,0.0,0.0,0.0,0.0,0.0,0.0,0.0,0.0,0.0
1646244538.8737063,6603,1646244538,873548216,,0.0,0.0,0.0,0.0,0.0,0.0,0.0,0.0,0.0,0.0,0.0,0.0,0.0,0.003929044120013714,0.00588963134214282,-0.011942928656935692,0.0,0.0,0.0,0.0,0.0,0.0,0.0,0.0,0.0,0.38769233226776123,-0.16153846681118011,8.572307586669922,0.0,0.0,0.0,0.0,0.0,0.0,0.0,0.0,0.0
1646244538.8759305,6604,1646244538,875761575,,0.0,0.0,0.0,0.0,0.0,0.0,0.0,0.0,0.0,0.0,0.0,0.0,0.0,-0.0067235990427434444,0.021868597716093063,0.02747185342013836,0.0,0.0,0.0,0.0,0.0,0.0,0.0,0.0,0.0,0.4792307913303375,0.31051284074783325,8.631538391113281,0.0,0.0,0.0,0.0,0.0,0.0,0.0,0.0,0.0
1646244538.8780143,6605,1646244538,877854725,,0.0,0.0,0.0,0.0,0.0,0.0,0.0,0.0,0.0,0.0,0.0,0.0,0.0,-0.020572034642100334,0.029325447976589203,-0.0034208132419735193,0.0,0.0,0.0,0.0,0.0,0.0,0.0,0.0,0.0,0.6587179899215698,-0.32307693362236023,8.712307929992676,0.0,0.0,0.0,0.0,0.0,0.0,0.0,0.0,0.0
1646244538.8800225,6606,1646244538,879945211,,0.0,0.0,0.0,0.0,0.0,0.0,0.0,0.0,0.0,0.0,0.0,0.0,0.0,-0.015245715156197548,0.04956547170877457,0.005101301707327366,0.0,0.0,0.0,0.0,0.0,0.0,0.0,0.0,0.0,0.4451282024383545,0.40205129981040955,8.836153984069824,0.0,0.0,0.0,0.0,0.0,0.0,0.0,0.0,0.0
1646244538.8821666,6607,1646244538,882049057,,0.0,0.0,0.0,0.0,0.0,0.0,0.0,0.0,0.0,0.0,0.0,0.0,0.0,-0.03228994458913803,0.08152340352535248,0.022145532071590424,0.0,0.0,0.0,0.0,0.0,0.0,0.0,0.0,0.0,0.7071795463562012,-0.1382051259279251,8.758974075317383,0.0,0.0,0.0,0.0,0.0,0.0,0.0,0.0,0.0
1646244538.8843286,6608,1646244538,884179776,,0.0,0.0,0.0,0.0,0.0,0.0,0.0,0.0,0.0,0.0,0.0,0.0,0.0,-0.03335520997643471,0.06447917222976685,0.006166566163301468,0.0,0.0,0.0,0.0,0.0,0.0,0.0,0.0,0.0,0.5043590068817139,-0.32307693362236023,8.814615249633789,0.0,0.0,0.0,0.0,0.0,0.0,0.0,0.0,0.0
1646244538.8863876,6609,1646244538,886271962,,0.0,0.0,0.0,0.0,0.0,0.0,0.0,0.0,0.0,0.0,0.0,0.0,0.0,-0.01098465733230114,0.10708974301815033,0.013623417355120182,0.0,0.0,0.0,0.0,0.0,0.0,0.0,0.0,0.0,0.5671795010566711,0.15794873237609863,9.175384521484375,0.0,0.0,0.0,0.0,0.0,0.0,0.0,0.0,0.0
1646244538.8886096,6610,1646244538,888403428,,0.0,0.0,0.0,0.0,0.0,0.0,0.0,0.0,0.0,0.0,0.0,0.0,0.0,-0.04826890677213669,0.1038939505815506,0.010427623987197876,0.0,0.0,0.0,0.0,0.0,0.0,0.0,0.0,0.0,0.6605128645896912,-0.26923078298568726,8.938461303710938,0.0,0.0,0.0,0.0,0.0,0.0,0.0,0.0,0.0
1646244538.8907442,6611,1646244538,890526666,,0.0,0.0,0.0,0.0,0.0,0.0,0.0,0.0,0.0,0.0,0.0,0.0,0.0,-0.009919392876327038,0.0900455191731453,0.011492888443171978,0.0,0.0,0.0,0.0,0.0,0.0,0.0,0.0,0.0,0.7323077321052551,0.026923077180981636,9.387179374694824,0.0,0.0,0.0,0.0,0.0,0.0,0.0,0.0,0.0
1646244538.8928285,6612,1646244538,892619209,,0.0,0.0,0.0,0.0,0.0,0.0,0.0,0.0,0.0,0.0,0.0,0.0,0.0,-0.04081205651164055,0.10495921224355698,0.01681920886039734,0.0,0.0,0.0,0.0,0.0,0.0,0.0,0.0,0.0,0.5438461303710938,-0.3482051491737366,9.076666831970215,0.0,0.0,0.0,0.0,0.0,0.0,0.0,0.0,0.0
1646244538.8948665,6613,1646244538,894787700,,0.0,0.0,0.0,0.0,0.0,0.0,0.0,0.0,0.0,0.0,0.0,0.0,0.0,-0.013115186244249344,0.10815500468015671,0.002970772795379162,0.0,0.0,0.0,0.0,0.0,0.0,0.0,0.0,0.0,0.6892307996749878,-0.01974359154701233,9.374615669250488,0.0,0.0,0.0,0.0,0.0,0.0,0.0,0.0,0.0
1646244538.8971367,6614,1646244538,896921163,,0.0,0.0,0.0,0.0,0.0,0.0,0.0,0.0,0.0,0.0,0.0,0.0,0.0,-0.037616267800331116,0.09643710404634476,0.032798174768686295,0.0,0.0,0.0,0.0,0.0,0.0,0.0,0.0,0.0,0.5761538743972778,-0.23692308366298676,8.934871673583984,0.0,0.0,0.0,0.0,0.0,0.0,0.0,0.0,0.0
1646244538.8991218,6615,1646244538,899018643,,0.0,0.0,0.0,0.0,0.0,0.0,0.0,0.0,0.0,0.0,0.0,0.0,0.0,-0.005658335518091917,0.10922027379274368,0.018949739634990692,0.0,0.0,0.0,0.0,0.0,0.0,0.0,0.0,0.0,0.6282051801681519,-0.028717949986457825,9.335128784179688,0.0,0.0,0.0,0.0,0.0,0.0,0.0,0.0,0.0
1646244538.9013093,6616,1646244538,901119666,,0.0,0.0,0.0,0.0,0.0,0.0,0.0,0.0,0.0,0.0,0.0,0.0,0.0,0.0007332512177526951,0.11241606622934341,0.004036037251353264,0.0,0.0,0.0,0.0,0.0,0.0,0.0,0.0,0.0,0.5797435641288757,-0.1974359005689621,9.658205032348633,0.0,0.0,0.0,0.0,0.0,0.0,0.0,0.0,0.0
1646244538.9033823,6617,1646244538,903215158,,0.0,0.0,0.0,0.0,0.0,0.0,0.0,0.0,0.0,0.0,0.0,0.0,0.0,0.015646953135728836,0.11454659700393677,-0.004486078396439552,0.0,0.0,0.0,0.0,0.0,0.0,0.0,0.0,0.0,0.8220512866973877,-0.044871795922517776,10.155384063720703,0.0,0.0,0.0,0.0,0.0,0.0,0.0,0.0,0.0
1646244538.9054682,6618,1646244538,905312424,,0.0,0.0,0.0,0.0,0.0,0.0,0.0,0.0,0.0,0.0,0.0,0.0,0.0,0.011385894380509853,0.12306871265172958,0.014688681811094284,0.0,0.0,0.0,0.0,0.0,0.0,0.0,0.0,0.0,0.7969231009483337,-0.2441025674343109,8.845128059387207,0.0,0.0,0.0,0.0,0.0,0.0,0.0,0.0,0.0
1646244538.9075904,6619,1646244538,907405371,,0.0,0.0,0.0,0.0,0.0,0.0,0.0,0.0,0.0,0.0,0.0,0.0,0.0,0.03482171148061752,0.1454392522573471,0.01681920886039734,0.0,0.0,0.0,0.0,0.0,0.0,0.0,0.0,0.0,0.6748718023300171,-0.22615385055541992,9.530769348144531,0.0,0.0,0.0,0.0,0.0,0.0,0.0,0.0,0.0
1646244538.9097993,6620,1646244538,909618127,,0.0,0.0,0.0,0.0,0.0,0.0,0.0,0.0,0.0,0.0,0.0,0.0,0.0,0.03269118070602417,0.14650452136993408,0.006166566163301468,0.0,0.0,0.0,0.0,0.0,0.0,0.0,0.0,0.0,0.3482051491737366,-0.41641026735305786,9.69410228729248,0.0,0.0,0.0,0.0,0.0,0.0,0.0,0.0,0.0
1646244538.9124064,6621,1646244538,911801657,,0.0,0.0,0.0,0.0,0.0,0.0,0.0,0.0,0.0,0.0,0.0,0.0,0.0,0.04653962329030037,0.13798241317272186,0.010427623987197876,0.0,0.0,0.0,0.0,0.0,0.0,0.0,0.0,0.0,0.5061538815498352,-0.4630769193172455,9.620512962341309,0.0,0.0,0.0,0.0,0.0,0.0,0.0,0.0,0.0
1646244538.9139957,6622,1646244538,913893686,,0.0,0.0,0.0,0.0,0.0,0.0,0.0,0.0,0.0,0.0,0.0,0.0,0.0,0.03375644609332085,0.15183083713054657,-0.008747135289013386,0.0,0.0,0.0,0.0,0.0,0.0,0.0,0.0,0.0,-0.08974359184503555,0.06641025841236115,9.369231224060059,0.0,0.0,0.0,0.0,0.0,0.0,0.0,0.0,0.0
1646244538.9160743,6623,1646244538,915986143,,0.0,0.0,0.0,0.0,0.0,0.0,0.0,0.0,0.0,0.0,0.0,0.0,0.0,0.023103805258870125,0.1635487675666809,-0.0034208132419735193,0.0,0.0,0.0,0.0,0.0,0.0,0.0,0.0,0.0,0.22256410121917725,-0.05205128341913223,9.929230690002441,0.0,0.0,0.0,0.0,0.0,0.0,0.0,0.0,0.0
1646244538.9183216,6624,1646244538,918157234,,0.0,0.0,0.0,0.0,0.0,0.0,0.0,0.0,0.0,0.0,0.0,0.0,0.0,0.044409092515707016,0.16461403667926788,0.004036037251353264,0.0,0.0,0.0,0.0,0.0,0.0,0.0,0.0,0.0,0.32487180829048157,0.07538461685180664,9.593589782714844,0.0,0.0,0.0,0.0,0.0,0.0,0.0,0.0,0.0
1646244538.920418,6625,1646244538,920253114,,0.0,0.0,0.0,0.0,0.0,0.0,0.0,0.0,0.0,0.0,0.0,0.0,0.0,0.02843012474477291,0.18165826797485352,-0.013008194044232368,0.0,0.0,0.0,0.0,0.0,0.0,0.0,0.0,0.0,0.38948720693588257,-0.4594871997833252,9.715641021728516,0.0,0.0,0.0,0.0,0.0,0.0,0.0,0.0,0.0
1646244538.9226627,6626,1646244538,922451068,,0.0,0.0,0.0,0.0,0.0,0.0,0.0,0.0,0.0,0.0,0.0,0.0,0.0,0.004994308575987816,0.19976773858070374,0.02640658989548683,0.0,0.0,0.0,0.0,0.0,0.0,0.0,0.0,0.0,0.2746153771877289,0.10769230872392654,9.50205135345459,0.0,0.0,0.0,0.0,0.0,0.0,0.0,0.0,0.0
1646244538.924837,6627,1646244538,924647512,,0.0,0.0,0.0,0.0,0.0,0.0,0.0,0.0,0.0,0.0,0.0,0.0,0.0,0.0028637798968702555,0.18485406041145325,0.01575394533574581,0.0,0.0,0.0,0.0,0.0,0.0,0.0,0.0,0.0,0.3500000238418579,-0.19564102590084076,9.363846778869629,0.0,0.0,0.0,0.0,0.0,0.0,0.0,0.0,0.0
1646244538.9270163,6628,1646244538,926757140,,0.0,0.0,0.0,0.0,0.0,0.0,0.0,0.0,0.0,0.0,0.0,0.0,0.0,-0.009919392876327038,0.19763721525669098,0.029602382332086563,0.0,0.0,0.0,0.0,0.0,0.0,0.0,0.0,0.0,0.34282052516937256,0.3535897731781006,9.64384651184082,0.0,0.0,0.0,0.0,0.0,0.0,0.0,0.0,0.0
1646244538.9290843,6629,1646244538,928896260,,0.0,0.0,0.0,0.0,0.0,0.0,0.0,0.0,0.0,0.0,0.0,0.0,0.0,-0.004593071062117815,0.22320355474948883,0.0019055086886510253,0.0,0.0,0.0,0.0,0.0,0.0,0.0,0.0,0.0,0.3912820518016815,-0.25846153497695923,9.588204383850098,0.0,0.0,0.0,0.0,0.0,0.0,0.0,0.0,0.0
1646244538.931216,6630,1646244538,931017200,,0.0,0.0,0.0,0.0,0.0,0.0,0.0,0.0,0.0,0.0,0.0,0.0,0.0,-0.01844150573015213,0.20935511589050293,0.009362359531223774,0.0,0.0,0.0,0.0,0.0,0.0,0.0,0.0,0.0,0.2620512843132019,0.3123077154159546,9.423076629638672,0.0,0.0,0.0,0.0,0.0,0.0,0.0,0.0,0.0
1646244538.9334095,6631,1646244538,933157484,,0.0,0.0,0.0,0.0,0.0,0.0,0.0,0.0,0.0,0.0,0.0,0.0,0.0,-0.026963621377944946,0.22107303142547607,0.008297095075249672,0.0,0.0,0.0,0.0,0.0,0.0,0.0,0.0,0.0,0.2566666603088379,0.20820513367652893,9.634871482849121,0.0,0.0,0.0,0.0,0.0,0.0,0.0,0.0,0.0
1646244538.935622,6632,1646244538,935372781,,0.0,0.0,0.0,0.0,0.0,0.0,0.0,0.0,0.0,0.0,0.0,0.0,0.0,-0.01844150573015213,0.2157467007637024,0.005101301707327366,0.0,0.0,0.0,0.0,0.0,0.0,0.0,0.0,0.0,0.0412820540368557,-0.14538460969924927,9.44282054901123,0.0,0.0,0.0,0.0,0.0,0.0,0.0,0.0,0.0
1646244538.9377635,6633,1646244538,937514540,,0.0,0.0,0.0,0.0,0.0,0.0,0.0,0.0,0.0,0.0,0.0,0.0,0.0,-0.019506771117448807,0.21681196987628937,-0.0034208132419735193,0.0,0.0,0.0,0.0,0.0,0.0,0.0,0.0,0.0,0.22435897588729858,0.15435898303985596,9.85564136505127,0.0,0.0,0.0,0.0,0.0,0.0,0.0,0.0,0.0
1646244538.939807,6634,1646244538,939646784,,0.0,0.0,0.0,0.0,0.0,0.0,0.0,0.0,0.0,0.0,0.0,0.0,0.0,0.008190101943910122,0.20189827680587769,0.005101301707327366,0.0,0.0,0.0,0.0,0.0,0.0,0.0,0.0,0.0,0.06820512562990189,-0.25128206610679626,9.498461723327637,0.0,0.0,0.0,0.0,0.0,0.0,0.0,0.0,0.0
1646244538.9421668,6635,1646244538,941823833,,0.0,0.0,0.0,0.0,0.0,0.0,0.0,0.0,0.0,0.0,0.0,0.0,0.0,0.004994308575987816,0.2157467007637024,-0.008747135289013386,0.0,0.0,0.0,0.0,0.0,0.0,0.0,0.0,0.0,0.2153846174478531,0.16333334147930145,9.956153869628906,0.0,0.0,0.0,0.0,0.0,0.0,0.0,0.0,0.0
1646244538.9444027,6636,1646244538,944040069,,0.0,0.0,0.0,0.0,0.0,0.0,0.0,0.0,0.0,0.0,0.0,0.0,0.0,0.00925536546856165,0.21894250810146332,0.039189763367176056,0.0,0.0,0.0,0.0,0.0,0.0,0.0,0.0,0.0,0.14897435903549194,-0.25846153497695923,9.683333396911621,0.0,0.0,0.0,0.0,0.0,0.0,0.0,0.0,0.0
1646244538.9465084,6637,1646244538,946240322,,0.0,0.0,0.0,0.0,0.0,0.0,0.0,0.0,0.0,0.0,0.0,0.0,0.0,0.027364861220121384,0.186984583735466,0.004036037251353264,0.0,0.0,0.0,0.0,0.0,0.0,0.0,0.0,0.0,0.09871795028448105,0.3033333420753479,10.151795387268066,0.0,0.0,0.0,0.0,0.0,0.0,0.0,0.0,0.0
1646244538.948792,6638,1646244538,948449821,,0.0,0.0,0.0,0.0,0.0,0.0,0.0,0.0,0.0,0.0,0.0,0.0,0.0,0.004994308575987816,0.2104203850030899,0.03173290938138962,0.0,0.0,0.0,0.0,0.0,0.0,0.0,0.0,0.0,0.01794871874153614,0.08974359184503555,10.121281623840332,0.0,0.0,0.0,0.0,0.0,0.0,0.0,0.0,0.0
1646244538.95096,6639,1646244538,950700492,,0.0,0.0,0.0,0.0,0.0,0.0,0.0,0.0,0.0,0.0,0.0,0.0,0.0,0.018842745572328568,0.15822245180606842,-0.0034208132419735193,0.0,0.0,0.0,0.0,0.0,0.0,0.0,0.0,0.0,0.15076923370361328,-0.05923077091574669,10.187692642211914,0.0,0.0,0.0,0.0,0.0,0.0,0.0,0.0,0.0
1646244538.9537942,6640,1646244538,952872633,,0.0,0.0,0.0,0.0,0.0,0.0,0.0,0.0,0.0,0.0,0.0,0.0,0.0,0.011385894380509853,0.15822245180606842,-0.0034208132419735193,0.0,0.0,0.0,0.0,0.0,0.0,0.0,0.0,0.0,0.08974359184503555,0.044871795922517776,10.383333206176758,0.0,0.0,0.0,0.0,0.0,0.0,0.0,0.0,0.0
1646244538.9553916,6641,1646244538,955062777,,0.0,0.0,0.0,0.0,0.0,0.0,0.0,0.0,0.0,0.0,0.0,0.0,0.0,0.0028637798968702555,0.13478662073612213,0.035993970930576324,0.0,0.0,0.0,0.0,0.0,0.0,0.0,0.0,0.0,0.11128205060958862,0.07717949151992798,10.525128364562988,0.0,0.0,0.0,0.0,0.0,0.0,0.0,0.0,0.0
1646244538.95762,6642,1646244538,957233790,,0.0,0.0,0.0,0.0,0.0,0.0,0.0,0.0,0.0,0.0,0.0,0.0,0.0,-0.0035278063733130693,0.09963290393352509,-0.018334513530135155,0.0,0.0,0.0,0.0,0.0,0.0,0.0,0.0,0.0,0.048461541533470154,0.12923076748847961,11.262821197509766,0.0,0.0,0.0,0.0,0.0,0.0,0.0,0.0,0.0
1646244538.9597955,6643,1646244538,959410891,,0.0,0.0,0.0,0.0,0.0,0.0,0.0,0.0,0.0,0.0,0.0,0.0,0.0,-0.0035278063733130693,0.11028553545475006,0.006166566163301468,0.0,0.0,0.0,0.0,0.0,0.0,0.0,0.0,0.0,0.010769231244921684,-0.11846154183149338,10.76025676727295,0.0,0.0,0.0,0.0,0.0,0.0,0.0,0.0,0.0
1646244538.9619877,6644,1646244538,961625018,,0.0,0.0,0.0,0.0,0.0,0.0,0.0,0.0,0.0,0.0,0.0,0.0,0.0,-0.005658335518091917,0.05169600248336792,-0.0023555487859994173,0.0,0.0,0.0,0.0,0.0,0.0,0.0,0.0,0.0,0.01974359154701233,0.21897436678409576,11.189229965209961,0.0,0.0,0.0,0.0,0.0,0.0,0.0,0.0,0.0
1646244538.964132,6645,1646244538,963804963,,0.0,0.0,0.0,0.0,0.0,0.0,0.0,0.0,0.0,0.0,0.0,0.0,0.0,-0.022702563554048538,0.04530441388487816,0.017884474247694016,0.0,0.0,0.0,0.0,0.0,0.0,0.0,0.0,0.0,-0.1794871836900711,-0.11307692527770996,11.047436714172363,0.0,0.0,0.0,0.0,0.0,0.0,0.0,0.0,0.0
1646244538.9663136,6646,1646244538,966022978,,0.0,0.0,0.0,0.0,0.0,0.0,0.0,0.0,0.0,0.0,0.0,0.0,0.0,0.0028637798968702555,0.028260184451937675,0.013623417355120182,0.0,0.0,0.0,0.0,0.0,0.0,0.0,0.0,0.0,-0.24230769276618958,0.3912820518016815,11.384871482849121,0.0,0.0,0.0,0.0,0.0,0.0,0.0,0.0,0.0
1646244538.9685273,6647,1646244538,968222163,,0.0,0.0,0.0,0.0,0.0,0.0,0.0,0.0,0.0,0.0,0.0,0.0,0.0,-0.01098465733230114,0.01441174652427435,-0.017269250005483627,0.0,0.0,0.0,0.0,0.0,0.0,0.0,0.0,0.0,-0.3123077154159546,-0.13641025125980377,11.15871810913086,0.0,0.0,0.0,0.0,0.0,0.0,0.0,0.0,0.0
1646244538.9708745,6648,1646244538,970450888,,0.0,0.0,0.0,0.0,0.0,0.0,0.0,0.0,0.0,0.0,0.0,0.0,0.0,-0.017376242205500603,0.017607539892196655,0.013623417355120182,0.0,0.0,0.0,0.0,0.0,0.0,0.0,0.0,0.0,-0.6138461828231812,-0.025128206238150597,11.322051048278809,0.0,0.0,0.0,0.0,0.0,0.0,0.0,0.0,0.0
1646244538.9729216,6649,1646244538,972691571,,0.0,0.0,0.0,0.0,0.0,0.0,0.0,0.0,0.0,0.0,0.0,0.0,0.0,-0.008854128420352936,-0.020741978660225868,-0.011942928656935692,0.0,0.0,0.0,0.0,0.0,0.0,0.0,0.0,0.0,-0.7358974814414978,0.2710256576538086,11.467435836791992,0.0,0.0,0.0,0.0,0.0,0.0,0.0,0.0,0.0
1646244538.9752038,6650,1646244538,974904450,,0.0,0.0,0.0,0.0,0.0,0.0,0.0,0.0,0.0,0.0,0.0,0.0,0.0,0.03482171148061752,-0.051634643226861954,-0.015138722956180573,0.0,0.0,0.0,0.0,0.0,0.0,0.0,0.0,0.0,-0.7412821054458618,-0.10948718339204788,11.329231262207031,0.0,0.0,0.0,0.0,0.0,0.0,0.0,0.0,0.0
1646244538.9774551,6651,1646244538,977117372,,0.0,0.0,0.0,0.0,0.0,0.0,0.0,0.0,0.0,0.0,0.0,0.0,0.0,-0.0013972773449495435,-0.05376517400145531,-0.030052425339818,0.0,0.0,0.0,0.0,0.0,0.0,0.0,0.0,0.0,-0.8130769729614258,0.42897436022758484,11.273590087890625,0.0,0.0,0.0,0.0,0.0,0.0,0.0,0.0,0.0
1646244538.9795895,6652,1646244538,979300154,,0.0,0.0,0.0,0.0,0.0,0.0,0.0,0.0,0.0,0.0,0.0,0.0,0.0,0.008190101943910122,-0.07400520145893097,-0.03431348130106926,0.0,0.0,0.0,0.0,0.0,0.0,0.0,0.0,0.0,-0.7251282334327698,-0.01794871874153614,11.126410484313965,0.0,0.0,0.0,0.0,0.0,0.0,0.0,0.0,0.0
1646244538.9817145,6653,1646244538,981477842,,0.0,0.0,0.0,0.0,0.0,0.0,0.0,0.0,0.0,0.0,0.0,0.0,0.0,0.001798515673726797,-0.07080940902233124,-0.03750927746295929,0.0,0.0,0.0,0.0,0.0,0.0,0.0,0.0,0.0,-0.8220512866973877,0.5223076939582825,11.022307395935059,0.0,0.0,0.0,0.0,0.0,0.0,0.0,0.0,0.0
1646244538.9840276,6654,1646244538,983714609,,0.0,0.0,0.0,0.0,0.0,0.0,0.0,0.0,0.0,0.0,0.0,0.0,0.0,0.003929044120013714,-0.08359257131814957,-0.02366083674132824,0.0,0.0,0.0,0.0,0.0,0.0,0.0,0.0,0.0,-0.7628205418586731,-0.10410256683826447,10.925384521484375,0.0,0.0,0.0,0.0,0.0,0.0,0.0,0.0,0.0
1646244538.9862502,6655,1646244538,985946825,,0.0,0.0,0.0,0.0,0.0,0.0,0.0,0.0,0.0,0.0,0.0,0.0,0.0,0.003929044120013714,-0.07933151721954346,-0.02685662917792797,0.0,0.0,0.0,0.0,0.0,0.0,0.0,0.0,0.0,-0.9656410217285156,0.5635897517204285,10.936153411865234,0.0,0.0,0.0,0.0,0.0,0.0,0.0,0.0,0.0
1646244538.9885345,6656,1646244538,988180074,,0.0,0.0,0.0,0.0,0.0,0.0,0.0,0.0,0.0,0.0,0.0,0.0,0.0,0.00712483748793602,-0.07613572478294373,-0.02366083674132824,0.0,0.0,0.0,0.0,0.0,0.0,0.0,0.0,0.0,-0.967435896396637,0.21717949211597443,10.693846702575684,0.0,0.0,0.0,0.0,0.0,0.0,0.0,0.0,0.0
1646244538.990583,6657,1646244538,990362402,,0.0,0.0,0.0,0.0,0.0,0.0,0.0,0.0,0.0,0.0,0.0,0.0,0.0,-0.016310978680849075,-0.07826624810695648,-0.004486078396439552,0.0,0.0,0.0,0.0,0.0,0.0,0.0,0.0,0.0,-0.8507692813873291,-0.025128206238150597,10.498205184936523,0.0,0.0,0.0,0.0,0.0,0.0,0.0,0.0,0.0
1646244538.9926903,6658,1646244538,992535864,,0.0,0.0,0.0,0.0,0.0,0.0,0.0,0.0,0.0,0.0,0.0,0.0,0.0,-0.0067235990427434444,-0.06228729337453842,-0.035378746688365936,0.0,0.0,0.0,0.0,0.0,0.0,0.0,0.0,0.0,-0.8866667151451111,0.2566666603088379,10.552051544189453,0.0,0.0,0.0,0.0,0.0,0.0,0.0,0.0,0.0
1646244538.9957802,6659,1646244538,994700927,,0.0,0.0,0.0,0.0,0.0,0.0,0.0,0.0,0.0,0.0,0.0,0.0,0.0,-0.008854128420352936,-0.06867887824773788,-0.031117688864469528,0.0,0.0,0.0,0.0,0.0,0.0,0.0,0.0,0.0,-0.6712821125984192,-0.007179487496614456,10.202051162719727,0.0,0.0,0.0,0.0,0.0,0.0,0.0,0.0,0.0
1646244538.9972212,6660,1646244538,996891686,,0.0,0.0,0.0,0.0,0.0,0.0,0.0,0.0,0.0,0.0,0.0,0.0,0.0,-0.022702563554048538,-0.08359257131814957,-0.04816191643476486,0.0,0.0,0.0,0.0,0.0,0.0,0.0,0.0,0.0,-0.5151281952857971,0.42000001668930054,10.717180252075195,0.0,0.0,0.0,0.0,0.0,0.0,0.0,0.0,0.0
1646244538.9994066,6661,1646244538,999123377,,0.0,0.0,0.0,0.0,0.0,0.0,0.0,0.0,0.0,0.0,0.0,0.0,0.0,-0.030159417539834976,-0.0867883637547493,-0.02366083674132824,0.0,0.0,0.0,0.0,0.0,0.0,0.0,0.0,0.0,-0.6946154236793518,-0.06461538374423981,10.132050514221191,0.0,0.0,0.0,0.0,0.0,0.0,0.0,0.0,0.0
1646244539.0015821,6662,1646244539,1328459,,0.0,0.0,0.0,0.0,0.0,0.0,0.0,0.0,0.0,0.0,0.0,0.0,0.0,-0.020572034642100334,-0.07933151721954346,-0.030052425339818,0.0,0.0,0.0,0.0,0.0,0.0,0.0,0.0,0.0,-0.2853846251964569,-0.05384615436196327,10.182308197021484,0.0,0.0,0.0,0.0,0.0,0.0,0.0,0.0,0.0
1646244539.0038085,6663,1646244539,3526148,,0.0,0.0,0.0,0.0,0.0,0.0,0.0,0.0,0.0,0.0,0.0,0.0,0.0,-0.02909415028989315,-0.09957154095172882,-0.022595571354031563,0.0,0.0,0.0,0.0,0.0,0.0,0.0,0.0,0.0,-0.40743592381477356,0.3069230914115906,10.06384563446045,0.0,0.0,0.0,0.0,0.0,0.0,0.0,0.0,0.0
1646244539.0060995,6664,1646244539,5733455,,0.0,0.0,0.0,0.0,0.0,0.0,0.0,0.0,0.0,0.0,0.0,0.0,0.0,-0.013115186244249344,-0.11768103390932083,-0.02046504244208336,0.0,0.0,0.0,0.0,0.0,0.0,0.0,0.0,0.0,-0.32846155762672424,0.0,10.029743194580078,0.0,0.0,0.0,0.0,0.0,0.0,0.0,0.0,0.0
1646244539.0081933,6665,1646244539,7960672,,0.0,0.0,0.0,0.0,0.0,0.0,0.0,0.0,0.0,0.0,0.0,0.0,0.0,-0.014180450700223446,-0.11768103390932083,-0.017269250005483627,0.0,0.0,0.0,0.0,0.0,0.0,0.0,0.0,0.0,-0.3392307758331299,0.19384616613388062,9.387179374694824,0.0,0.0,0.0,0.0,0.0,0.0,0.0,0.0,0.0
1646244539.010336,6666,1646244539,10146959,,0.0,0.0,0.0,0.0,0.0,0.0,0.0,0.0,0.0,0.0,0.0,0.0,0.0,-0.008854128420352936,-0.11022418737411499,0.00723183061927557,0.0,0.0,0.0,0.0,0.0,0.0,0.0,0.0,0.0,-0.32487180829048157,0.23153845965862274,10.067436218261719,0.0,0.0,0.0,0.0,0.0,0.0,0.0,0.0,0.0
1646244539.0126638,6667,1646244539,12350259,,0.0,0.0,0.0,0.0,0.0,0.0,0.0,0.0,0.0,0.0,0.0,0.0,0.0,-0.0035278063733130693,-0.12939895689487457,-0.024726100265979767,0.0,0.0,0.0,0.0,0.0,0.0,0.0,0.0,0.0,-0.30153846740722656,0.2853846251964569,9.715641021728516,0.0,0.0,0.0,0.0,0.0,0.0,0.0,0.0,0.0
1646244539.0153751,6668,1646244539,14822271,,0.0,0.0,0.0,0.0,0.0,0.0,0.0,0.0,0.0,0.0,0.0,0.0,0.0,0.006059573031961918,-0.147508442401886,0.010427623987197876,0.0,0.0,0.0,0.0,0.0,0.0,0.0,0.0,0.0,-0.42538464069366455,0.023333333432674408,9.564871788024902,0.0,0.0,0.0,0.0,0.0,0.0,0.0,0.0,0.0
1646244539.0175073,6669,1646244539,17037252,,0.0,0.0,0.0,0.0,0.0,0.0,0.0,0.0,0.0,0.0,0.0,0.0,0.0,-0.005658335518091917,-0.16242215037345886,-0.018334513530135155,0.0,0.0,0.0,0.0,0.0,0.0,0.0,0.0,0.0,-0.18307693302631378,0.2387179583311081,10.026153564453125,0.0,0.0,0.0,0.0,0.0,0.0,0.0,0.0,0.0
1646244539.0195436,6670,1646244539,19218988,,0.0,0.0,0.0,0.0,0.0,0.0,0.0,0.0,0.0,0.0,0.0,0.0,0.0,0.00712483748793602,-0.15922635793685913,-0.0076818703673779964,0.0,0.0,0.0,0.0,0.0,0.0,0.0,0.0,0.0,-0.4182051420211792,0.0825641080737114,9.64564037322998,0.0,0.0,0.0,0.0,0.0,0.0,0.0,0.0,0.0
1646244539.0217922,6671,1646244539,21425884,,0.0,0.0,0.0,0.0,0.0,0.0,0.0,0.0,0.0,0.0,0.0,0.0,0.0,0.001798515673726797,-0.1709442436695099,0.02001500315964222,0.0,0.0,0.0,0.0,0.0,0.0,0.0,0.0,0.0,-0.45230770111083984,0.03410256281495094,9.683333396911621,0.0,0.0,0.0,0.0,0.0,0.0,0.0,0.0,0.0
1646244539.0239494,6672,1646244539,23662771,,0.0,0.0,0.0,0.0,0.0,0.0,0.0,0.0,0.0,0.0,0.0,0.0,0.0,0.00925536546856165,-0.18692322075366974,-0.03750927746295929,0.0,0.0,0.0,0.0,0.0,0.0,0.0,0.0,0.0,-0.5600000023841858,0.16692309081554413,10.0853853225708,0.0,0.0,0.0,0.0,0.0,0.0,0.0,0.0,0.0
1646244539.0260198,6673,1646244539,25823033,,0.0,0.0,0.0,0.0,0.0,0.0,0.0,0.0,0.0,0.0,0.0,0.0,0.0,0.01777748018503189,-0.18585795164108276,0.004036037251353264,0.0,0.0,0.0,0.0,0.0,0.0,0.0,0.0,0.0,-0.7035897970199585,-0.06461538374423981,9.812564849853516,0.0,0.0,0.0,0.0,0.0,0.0,0.0,0.0,0.0
1646244539.0282898,6674,1646244539,27996435,,0.0,0.0,0.0,0.0,0.0,0.0,0.0,0.0,0.0,0.0,0.0,0.0,0.0,0.038017503917217255,-0.20503270626068115,-0.035378746688365936,0.0,0.0,0.0,0.0,0.0,0.0,0.0,0.0,0.0,-0.4828205108642578,0.1741025745868683,9.979487419128418,0.0,0.0,0.0,0.0,0.0,0.0,0.0,0.0,0.0
1646244539.0306437,6675,1646244539,30240214,,0.0,0.0,0.0,0.0,0.0,0.0,0.0,0.0,0.0,0.0,0.0,0.0,0.0,0.018842745572328568,-0.20503270626068115,-0.017269250005483627,0.0,0.0,0.0,0.0,0.0,0.0,0.0,0.0,0.0,-0.20820513367652893,-0.06820512562990189,9.489486694335938,0.0,0.0,0.0,0.0,0.0,0.0,0.0,0.0,0.0
1646244539.0327969,6676,1646244539,32487174,,0.0,0.0,0.0,0.0,0.0,0.0,0.0,0.0,0.0,0.0,0.0,0.0,0.0,0.012451158836483955,-0.21462008357048035,-0.011942928656935692,0.0,0.0,0.0,0.0,0.0,0.0,0.0,0.0,0.0,-0.048461541533470154,0.27820512652397156,9.322564125061035,0.0,0.0,0.0,0.0,0.0,0.0,0.0,0.0,0.0
1646244539.0350623,6677,1646244539,34684608,,0.0,0.0,0.0,0.0,0.0,0.0,0.0,0.0,0.0,0.0,0.0,0.0,0.0,0.02523433417081833,-0.2305990606546402,-0.01407345850020647,0.0,0.0,0.0,0.0,0.0,0.0,0.0,0.0,0.0,-0.24051281809806824,-0.12564103305339813,9.50205135345459,0.0,0.0,0.0,0.0,0.0,0.0,0.0,0.0,0.0
1646244539.0376933,6678,1646244539,36873957,,0.0,0.0,0.0,0.0,0.0,0.0,0.0,0.0,0.0,0.0,0.0,0.0,0.0,0.011385894380509853,-0.20929376780986786,-0.006616605911403894,0.0,0.0,0.0,0.0,0.0,0.0,0.0,0.0,0.0,-0.6820513010025024,0.6982051730155945,10.121281623840332,0.0,0.0,0.0,0.0,0.0,0.0,0.0,0.0,0.0
1646244539.0392604,6679,1646244539,39043900,,0.0,0.0,0.0,0.0,0.0,0.0,0.0,0.0,0.0,0.0,0.0,0.0,0.0,-0.0013972773449495435,-0.22314220666885376,-0.0076818703673779964,0.0,0.0,0.0,0.0,0.0,0.0,0.0,0.0,0.0,-0.35538461804389954,0.09512820839881897,9.929230690002441,0.0,0.0,0.0,0.0,0.0,0.0,0.0,0.0,0.0
1646244539.041543,6680,1646244539,41231150,,0.0,0.0,0.0,0.0,0.0,0.0,0.0,0.0,0.0,0.0,0.0,0.0,0.0,0.019908009096980095,-0.2124895602464676,0.014688681811094284,0.0,0.0,0.0,0.0,0.0,0.0,0.0,0.0,0.0,-0.14000000059604645,-0.005384615622460842,9.582819938659668,0.0,0.0,0.0,0.0,0.0,0.0,0.0,0.0,0.0
1646244539.0437405,6681,1646244539,43402926,,0.0,0.0,0.0,0.0,0.0,0.0,0.0,0.0,0.0,0.0,0.0,0.0,0.0,0.006059573031961918,-0.20396745204925537,-0.009812399744987488,0.0,0.0,0.0,0.0,0.0,0.0,0.0,0.0,0.0,0.0412820540368557,0.31051284074783325,9.245384216308594,0.0,0.0,0.0,0.0,0.0,0.0,0.0,0.0,0.0
1646244539.0458858,6682,1646244539,45617681,,0.0,0.0,0.0,0.0,0.0,0.0,0.0,0.0,0.0,0.0,0.0,0.0,0.0,-0.0013972773449495435,-0.20077165961265564,-0.0076818703673779964,0.0,0.0,0.0,0.0,0.0,0.0,0.0,0.0,0.0,0.2764102518558502,-0.15435898303985596,8.7105131149292,0.0,0.0,0.0,0.0,0.0,0.0,0.0,0.0,0.0
1646244539.0481555,6683,1646244539,47852793,,0.0,0.0,0.0,0.0,0.0,0.0,0.0,0.0,0.0,0.0,0.0,0.0,0.0,0.02523433417081833,-0.18585795164108276,0.002970772795379162,0.0,0.0,0.0,0.0,0.0,0.0,0.0,0.0,0.0,-0.3069230914115906,0.4451282024383545,9.825127601623535,0.0,0.0,0.0,0.0,0.0,0.0,0.0,0.0,0.0
1646244539.050335,6684,1646244539,50022192,,0.0,0.0,0.0,0.0,0.0,0.0,0.0,0.0,0.0,0.0,0.0,0.0,0.0,0.008190101943910122,-0.18692322075366974,-0.005551342852413654,0.0,0.0,0.0,0.0,0.0,0.0,0.0,0.0,0.0,0.09692308306694031,-0.044871795922517776,8.782307624816895,0.0,0.0,0.0,0.0,0.0,0.0,0.0,0.0,0.0
1646244539.0525775,6685,1646244539,52229478,,0.0,0.0,0.0,0.0,0.0,0.0,0.0,0.0,0.0,0.0,0.0,0.0,0.0,0.026299597695469856,-0.1560305655002594,0.032798174768686295,0.0,0.0,0.0,0.0,0.0,0.0,0.0,0.0,0.0,0.24948717653751373,-0.2297435998916626,8.764358520507812,0.0,0.0,0.0,0.0,0.0,0.0,0.0,0.0,0.0
1646244539.0547554,6686,1646244539,54460598,,0.0,0.0,0.0,0.0,0.0,0.0,0.0,0.0,0.0,0.0,0.0,0.0,0.0,-0.0077888634987175465,-0.15709583461284637,-0.032182954251766205,0.0,0.0,0.0,0.0,0.0,0.0,0.0,0.0,0.0,0.1794871836900711,0.16333334147930145,8.470000267028809,0.0,0.0,0.0,0.0,0.0,0.0,0.0,0.0,0.0
1646244539.0570571,6687,1646244539,56657140,,0.0,0.0,0.0,0.0,0.0,0.0,0.0,0.0,0.0,0.0,0.0,0.0,0.0,0.00712483748793602,-0.1325947493314743,-0.004486078396439552,0.0,0.0,0.0,0.0,0.0,0.0,0.0,0.0,0.0,0.08974359184503555,-0.20102564990520477,8.802051544189453,0.0,0.0,0.0,0.0,0.0,0.0,0.0,0.0,0.0
1646244539.0596628,6688,1646244539,58851084,,0.0,0.0,0.0,0.0,0.0,0.0,0.0,0.0,0.0,0.0,0.0,0.0,0.0,0.0007332512177526951,-0.11768103390932083,-0.015138722956180573,0.0,0.0,0.0,0.0,0.0,0.0,0.0,0.0,0.0,-0.2853846251964569,0.4415384829044342,9.390769004821777,0.0,0.0,0.0,0.0,0.0,0.0,0.0,0.0,0.0
1646244539.0614161,6689,1646244539,61053864,,0.0,0.0,0.0,0.0,0.0,0.0,0.0,0.0,0.0,0.0,0.0,0.0,0.0,0.014581688679754734,-0.1187463030219078,0.002970772795379162,0.0,0.0,0.0,0.0,0.0,0.0,0.0,0.0,0.0,-0.22794872522354126,0.2710256576538086,9.335128784179688,0.0,0.0,0.0,0.0,0.0,0.0,0.0,0.0,0.0
1646244539.0636117,6690,1646244539,63264301,,0.0,0.0,0.0,0.0,0.0,0.0,0.0,0.0,0.0,0.0,0.0,0.0,0.0,-0.0035278063733130693,-0.05696096643805504,-0.009812399744987488,0.0,0.0,0.0,0.0,0.0,0.0,0.0,0.0,0.0,-0.11307692527770996,0.4810256361961365,9.451794624328613,0.0,0.0,0.0,0.0,0.0,0.0,0.0,0.0,0.0
1646244539.065745,6691,1646244539,65468333,,0.0,0.0,0.0,0.0,0.0,0.0,0.0,0.0,0.0,0.0,0.0,0.0,0.0,-0.0003320134710520506,-0.0633525550365448,-0.0012902843300253153,0.0,0.0,0.0,0.0,0.0,0.0,0.0,0.0,0.0,0.3320513069629669,-0.1884615421295166,8.478974342346191,0.0,0.0,0.0,0.0,0.0,0.0,0.0,0.0,0.0
1646244539.0678985,6692,1646244539,67647969,,0.0,0.0,0.0,0.0,0.0,0.0,0.0,0.0,0.0,0.0,0.0,0.0,0.0,0.001798515673726797,0.0005633095279335976,-0.0034208132419735193,0.0,0.0,0.0,0.0,0.0,0.0,0.0,0.0,0.0,0.4774359166622162,0.05384615436196327,8.369486808776855,0.0,0.0,0.0,0.0,0.0,0.0,0.0,0.0,0.0
1646244539.0701778,6693,1646244539,69873366,,0.0,0.0,0.0,0.0,0.0,0.0,0.0,0.0,0.0,0.0,0.0,0.0,0.0,-0.019506771117448807,-0.03459041193127632,-0.0076818703673779964,0.0,0.0,0.0,0.0,0.0,0.0,0.0,0.0,0.0,0.026923077180981636,0.12564103305339813,9.022820472717285,0.0,0.0,0.0,0.0,0.0,0.0,0.0,0.0,0.0
1646244539.0725641,6694,1646244539,72078288,,0.0,0.0,0.0,0.0,0.0,0.0,0.0,0.0,0.0,0.0,0.0,0.0,0.0,-0.020572034642100334,0.0016285729361698031,-0.015138722956180573,0.0,0.0,0.0,0.0,0.0,0.0,0.0,0.0,0.0,0.4505128264427185,0.43974360823631287,8.322820663452148,0.0,0.0,0.0,0.0,0.0,0.0,0.0,0.0,0.0
1646244539.0746753,6695,1646244539,74302826,,0.0,0.0,0.0,0.0,0.0,0.0,0.0,0.0,0.0,0.0,0.0,0.0,0.0,-0.03228994458913803,0.01654227450489998,-0.01087766420096159,0.0,0.0,0.0,0.0,0.0,0.0,0.0,0.0,0.0,0.08076923340559006,0.3302564322948456,9.170000076293945,0.0,0.0,0.0,0.0,0.0,0.0,0.0,0.0,0.0
1646244539.077035,6696,1646244539,76569840,,0.0,0.0,0.0,0.0,0.0,0.0,0.0,0.0,0.0,0.0,0.0,0.0,0.0,-0.028028886765241623,0.038912829011678696,0.02747185342013836,0.0,0.0,0.0,0.0,0.0,0.0,0.0,0.0,0.0,0.8615384697914124,-0.29076921939849854,8.10025691986084,0.0,0.0,0.0,0.0,0.0,0.0,0.0,0.0,0.0
1646244539.0802977,6697,1646244539,78805169,,0.0,0.0,0.0,0.0,0.0,0.0,0.0,0.0,0.0,0.0,0.0,0.0,0.0,-0.019506771117448807,0.06980549544095993,-0.0023555487859994173,0.0,0.0,0.0,0.0,0.0,0.0,0.0,0.0,0.0,0.7071795463562012,0.10948718339204788,8.816410064697266,0.0,0.0,0.0,0.0,0.0,0.0,0.0,0.0,0.0
1646244539.081784,6698,1646244539,81061259,,0.0,0.0,0.0,0.0,0.0,0.0,0.0,0.0,0.0,0.0,0.0,0.0,0.0,-0.04720364511013031,0.07193602621555328,0.039189763367176056,0.0,0.0,0.0,0.0,0.0,0.0,0.0,0.0,0.0,0.07179487496614456,-0.0412820540368557,8.927692413330078,0.0,0.0,0.0,0.0,0.0,0.0,0.0,0.0,0.0
1646244539.0836074,6699,1646244539,83302449,,0.0,0.0,0.0,0.0,0.0,0.0,0.0,0.0,0.0,0.0,0.0,0.0,0.0,-0.026963621377944946,0.0708707645535469,0.00723183061927557,0.0,0.0,0.0,0.0,0.0,0.0,0.0,0.0,0.0,0.4146153926849365,0.1884615421295166,9.218461990356445,0.0,0.0,0.0,0.0,0.0,0.0,0.0,0.0,0.0
1646244539.0858915,6700,1646244539,85547289,,0.0,0.0,0.0,0.0,0.0,0.0,0.0,0.0,0.0,0.0,0.0,0.0,0.0,-0.02909415028989315,0.061283376067876816,0.011492888443171978,0.0,0.0,0.0,0.0,0.0,0.0,0.0,0.0,0.0,0.3571794927120209,0.046666666865348816,9.248974800109863,0.0,0.0,0.0,0.0,0.0,0.0,0.0,0.0,0.0
1646244539.0882275,6701,1646244539,87791821,,0.0,0.0,0.0,0.0,0.0,0.0,0.0,0.0,0.0,0.0,0.0,0.0,0.0,-0.034420475363731384,0.09643710404634476,0.013623417355120182,0.0,0.0,0.0,0.0,0.0,0.0,0.0,0.0,0.0,0.5151281952857971,0.3643589913845062,8.827178955078125,0.0,0.0,0.0,0.0,0.0,0.0,0.0,0.0,0.0
1646244539.090602,6702,1646244539,90032037,,0.0,0.0,0.0,0.0,0.0,0.0,0.0,0.0,0.0,0.0,0.0,0.0,0.0,-0.030159417539834976,0.11348132789134979,0.017884474247694016,0.0,0.0,0.0,0.0,0.0,0.0,0.0,0.0,0.0,1.0679486989974976,-0.39846155047416687,8.295897483825684,0.0,0.0,0.0,0.0,0.0,0.0,0.0,0.0,0.0
1646244539.092671,6703,1646244539,92333431,,0.0,0.0,0.0,0.0,0.0,0.0,0.0,0.0,0.0,0.0,0.0,0.0,0.0,-0.03868153318762779,0.10282868891954422,0.02001500315964222,0.0,0.0,0.0,0.0,0.0,0.0,0.0,0.0,0.0,0.926153838634491,-0.43974360823631287,8.518461227416992,0.0,0.0,0.0,0.0,0.0,0.0,0.0,0.0,0.0
1646244539.094849,6704,1646244539,94548929,,0.0,0.0,0.0,0.0,0.0,0.0,0.0,0.0,0.0,0.0,0.0,0.0,0.0,-0.028028886765241623,0.1038939505815506,0.0019055086886510253,0.0,0.0,0.0,0.0,0.0,0.0,0.0,0.0,0.0,0.7143589854240417,-0.10230769217014313,8.866666793823242,0.0,0.0,0.0,0.0,0.0,0.0,0.0,0.0,0.0
1646244539.097217,6705,1646244539,96802451,,0.0,0.0,0.0,0.0,0.0,0.0,0.0,0.0,0.0,0.0,0.0,0.0,0.0,-0.02589835785329342,0.11241606622934341,0.017884474247694016,0.0,0.0,0.0,0.0,0.0,0.0,0.0,0.0,0.0,0.9979487061500549,-0.21000000834465027,8.972563743591309,0.0,0.0,0.0,0.0,0.0,0.0,0.0,0.0,0.0
1646244539.0995052,6706,1646244539,99061484,,0.0,0.0,0.0,0.0,0.0,0.0,0.0,0.0,0.0,0.0,0.0,0.0,0.0,-0.03655100241303444,0.11348132789134979,0.037059236317873,0.0,0.0,0.0,0.0,0.0,0.0,0.0,0.0,0.0,0.4738461673259735,0.2764102518558502,9.046154022216797,0.0,0.0,0.0,0.0,0.0,0.0,0.0,0.0,0.0
1646244539.101732,6707,1646244539,101317979,,0.0,0.0,0.0,0.0,0.0,0.0,0.0,0.0,0.0,0.0,0.0,0.0,0.0,-0.009919392876327038,0.08898025751113892,0.002970772795379162,0.0,0.0,0.0,0.0,0.0,0.0,0.0,0.0,0.0,0.823846161365509,-0.3176923394203186,10.045896530151367,0.0,0.0,0.0,0.0,0.0,0.0,0.0,0.0,0.0
1646244539.1040156,6708,1646244539,103545558,,0.0,0.0,0.0,0.0,0.0,0.0,0.0,0.0,0.0,0.0,0.0,0.0,0.0,-0.009919392876327038,0.13478662073612213,0.03812449797987938,0.0,0.0,0.0,0.0,0.0,0.0,0.0,0.0,0.0,0.3733333349227905,-0.15256410837173462,9.1646146774292,0.0,0.0,0.0,0.0,0.0,0.0,0.0,0.0,0.0
1646244539.1062353,6709,1646244539,105761492,,0.0,0.0,0.0,0.0,0.0,0.0,0.0,0.0,0.0,0.0,0.0,0.0,0.0,-0.017376242205500603,0.12306871265172958,0.014688681811094284,0.0,0.0,0.0,0.0,0.0,0.0,0.0,0.0,0.0,-0.08974359184503555,0.2028205245733261,10.040512084960938,0.0,0.0,0.0,0.0,0.0,0.0,0.0,0.0,0.0
1646244539.1084232,6710,1646244539,107964545,,0.0,0.0,0.0,0.0,0.0,0.0,0.0,0.0,0.0,0.0,0.0,0.0,0.0,-0.008854128420352936,0.13798241317272186,0.014688681811094284,0.0,0.0,0.0,0.0,0.0,0.0,0.0,0.0,0.0,0.3769230842590332,-0.4594871997833252,9.284872055053711,0.0,0.0,0.0,0.0,0.0,0.0,0.0,0.0,0.0
1646244539.1105068,6711,1646244539,110162506,,0.0,0.0,0.0,0.0,0.0,0.0,0.0,0.0,0.0,0.0,0.0,0.0,0.0,0.008190101943910122,0.11880765110254288,0.025341326370835304,0.0,0.0,0.0,0.0,0.0,0.0,0.0,0.0,0.0,0.07717949151992798,0.17230769991874695,9.956153869628906,0.0,0.0,0.0,0.0,0.0,0.0,0.0,0.0,0.0
1646244539.1127446,6712,1646244539,112379677,,0.0,0.0,0.0,0.0,0.0,0.0,0.0,0.0,0.0,0.0,0.0,0.0,0.0,0.0103206317871809,0.13478662073612213,-0.004486078396439552,0.0,0.0,0.0,0.0,0.0,0.0,0.0,0.0,0.0,0.3212820589542389,-0.12743589282035828,9.390769004821777,0.0,0.0,0.0,0.0,0.0,0.0,0.0,0.0,0.0
1646244539.114883,6713,1646244539,114575365,,0.0,0.0,0.0,0.0,0.0,0.0,0.0,0.0,0.0,0.0,0.0,0.0,0.0,0.038017503917217255,0.1369171440601349,0.032798174768686295,0.0,0.0,0.0,0.0,0.0,0.0,0.0,0.0,0.0,0.03589743748307228,-0.12025640904903412,9.857436180114746,0.0,0.0,0.0,0.0,0.0,0.0,0.0,0.0,0.0
1646244539.117274,6714,1646244539,116796795,,0.0,0.0,0.0,0.0,0.0,0.0,0.0,0.0,0.0,0.0,0.0,0.0,0.0,0.0220385380089283,0.16567929089069366,-0.0162039864808321,0.0,0.0,0.0,0.0,0.0,0.0,0.0,0.0,0.0,0.41102564334869385,-0.13461539149284363,9.433846473693848,0.0,0.0,0.0,0.0,0.0,0.0,0.0,0.0,0.0
1646244539.1194782,6715,1646244539,119008695,,0.0,0.0,0.0,0.0,0.0,0.0,0.0,0.0,0.0,0.0,0.0,0.0,0.0,0.02097327448427677,0.16780982911586761,0.014688681811094284,0.0,0.0,0.0,0.0,0.0,0.0,0.0,0.0,0.0,0.4864102602005005,-0.6389743685722351,9.200512886047363,0.0,0.0,0.0,0.0,0.0,0.0,0.0,0.0,0.0
1646244539.123412,6716,1646244539,121227653,,0.0,0.0,0.0,0.0,0.0,0.0,0.0,0.0,0.0,0.0,0.0,0.0,0.0,0.015646953135728836,0.19444142282009125,0.008297095075249672,0.0,0.0,0.0,0.0,0.0,0.0,0.0,0.0,0.0,0.19025641679763794,0.33743590116500854,9.570256233215332,0.0,0.0,0.0,0.0,0.0,0.0,0.0,0.0,0.0
1646244539.123741,6717,1646244539,123475183,,0.0,0.0,0.0,0.0,0.0,0.0,0.0,0.0,0.0,0.0,0.0,0.0,0.0,-0.0035278063733130693,0.21681196987628937,0.028537116944789886,0.0,0.0,0.0,0.0,0.0,0.0,0.0,0.0,0.0,0.09692308306694031,-0.08974359184503555,9.432050704956055,0.0,0.0,0.0,0.0,0.0,0.0,0.0,0.0,0.0
1646244539.1262631,6718,1646244539,125739662,,0.0,0.0,0.0,0.0,0.0,0.0,0.0,0.0,0.0,0.0,0.0,0.0,0.0,0.02843012474477291,0.21148565411567688,0.0019055086886510253,0.0,0.0,0.0,0.0,0.0,0.0,0.0,0.0,0.0,0.028717949986457825,0.4092307686805725,9.970513343811035,0.0,0.0,0.0,0.0,0.0,0.0,0.0,0.0,0.0
1646244539.1282682,6719,1646244539,127952187,,0.0,0.0,0.0,0.0,0.0,0.0,0.0,0.0,0.0,0.0,0.0,0.0,0.0,0.026299597695469856,0.22639934718608856,0.017884474247694016,0.0,0.0,0.0,0.0,0.0,0.0,0.0,0.0,0.0,0.3302564322948456,-0.21358974277973175,9.317179679870605,0.0,0.0,0.0,0.0,0.0,0.0,0.0,0.0,0.0
1646244539.130413,6720,1646244539,130166211,,0.0,0.0,0.0,0.0,0.0,0.0,0.0,0.0,0.0,0.0,0.0,0.0,0.0,0.018842745572328568,0.23492147028446198,0.014688681811094284,0.0,0.0,0.0,0.0,0.0,0.0,0.0,0.0,0.0,0.4505128264427185,0.2889743745326996,9.45897388458252,0.0,0.0,0.0,0.0,0.0,0.0,0.0,0.0,0.0
1646244539.1327975,6721,1646244539,132381283,,0.0,0.0,0.0,0.0,0.0,0.0,0.0,0.0,0.0,0.0,0.0,0.0,0.0,0.030560653656721115,0.24557411670684814,-0.006616605911403894,0.0,0.0,0.0,0.0,0.0,0.0,0.0,0.0,0.0,0.26923078298568726,0.1238461583852768,9.437435150146484,0.0,0.0,0.0,0.0,0.0,0.0,0.0,0.0,0.0
1646244539.1349685,6722,1646244539,134593177,,0.0,0.0,0.0,0.0,0.0,0.0,0.0,0.0,0.0,0.0,0.0,0.0,0.0,0.026299597695469856,0.23172567784786224,-0.0012902843300253153,0.0,0.0,0.0,0.0,0.0,0.0,0.0,0.0,0.0,0.4415384829044342,-0.32487180829048157,9.401537895202637,0.0,0.0,0.0,0.0,0.0,0.0,0.0,0.0,0.0
1646244539.1373355,6723,1646244539,136845208,,0.0,0.0,0.0,0.0,0.0,0.0,0.0,0.0,0.0,0.0,0.0,0.0,0.0,0.011385894380509853,0.2381172627210617,0.009362359531223774,0.0,0.0,0.0,0.0,0.0,0.0,0.0,0.0,0.0,0.15076923370361328,0.19923077523708344,9.778461456298828,0.0,0.0,0.0,0.0,0.0,0.0,0.0,0.0,0.0
1646244539.139542,6724,1646244539,139107551,,0.0,0.0,0.0,0.0,0.0,0.0,0.0,0.0,0.0,0.0,0.0,0.0,0.0,0.04334382712841034,0.23066040873527527,0.01681920886039734,0.0,0.0,0.0,0.0,0.0,0.0,0.0,0.0,0.0,0.2800000011920929,-0.17589744925498962,9.681538581848145,0.0,0.0,0.0,0.0,0.0,0.0,0.0,0.0,0.0
1646244539.1417906,6725,1646244539,141401919,,0.0,0.0,0.0,0.0,0.0,0.0,0.0,0.0,0.0,0.0,0.0,0.0,0.0,0.026299597695469856,0.23066040873527527,0.00723183061927557,0.0,0.0,0.0,0.0,0.0,0.0,0.0,0.0,0.0,0.030512820929288864,0.3535897731781006,10.049487113952637,0.0,0.0,0.0,0.0,0.0,0.0,0.0,0.0,0.0
1646244539.1440575,6726,1646244539,143626632,,0.0,0.0,0.0,0.0,0.0,0.0,0.0,0.0,0.0,0.0,0.0,0.0,0.0,0.041213300079107285,0.2157467007637024,0.011492888443171978,0.0,0.0,0.0,0.0,0.0,0.0,0.0,0.0,0.0,0.28717949986457825,-0.17589744925498962,10.180513381958008,0.0,0.0,0.0,0.0,0.0,0.0,0.0,0.0,0.0
1646244539.1462297,6727,1646244539,145853948,,0.0,0.0,0.0,0.0,0.0,0.0,0.0,0.0,0.0,0.0,0.0,0.0,0.0,0.02097327448427677,0.19018036127090454,0.029602382332086563,0.0,0.0,0.0,0.0,0.0,0.0,0.0,0.0,0.0,0.2476923167705536,-0.21717949211597443,10.083589553833008,0.0,0.0,0.0,0.0,0.0,0.0,0.0,0.0,0.0
1646244539.1484072,6728,1646244539,148043541,,0.0,0.0,0.0,0.0,0.0,0.0,0.0,0.0,0.0,0.0,0.0,0.0,0.0,0.044409092515707016,0.2157467007637024,0.01255815289914608,0.0,0.0,0.0,0.0,0.0,0.0,0.0,0.0,0.0,-0.03948718309402466,0.2387179583311081,10.510769844055176,0.0,0.0,0.0,0.0,0.0,0.0,0.0,0.0,0.0
1646244539.1509256,6729,1646244539,150314994,,0.0,0.0,0.0,0.0,0.0,0.0,0.0,0.0,0.0,0.0,0.0,0.0,0.0,0.004994308575987816,0.18591931462287903,0.024276060983538628,0.0,0.0,0.0,0.0,0.0,0.0,0.0,0.0,0.0,0.012564103119075298,-0.1238461583852768,10.640000343322754,0.0,0.0,0.0,0.0,0.0,0.0,0.0,0.0,0.0
1646244539.1529913,6730,1646244539,152591699,,0.0,0.0,0.0,0.0,0.0,0.0,0.0,0.0,0.0,0.0,0.0,0.0,0.0,0.015646953135728836,0.14756979048252106,-0.0012902843300253153,0.0,0.0,0.0,0.0,0.0,0.0,0.0,0.0,0.0,-0.12564103305339813,0.24230769276618958,10.876922607421875,0.0,0.0,0.0,0.0,0.0,0.0,0.0,0.0,0.0
1646244539.1553512,6731,1646244539,154821982,,0.0,0.0,0.0,0.0,0.0,0.0,0.0,0.0,0.0,0.0,0.0,0.0,0.0,-0.004593071062117815,0.15715718269348145,0.03492870554327965,0.0,0.0,0.0,0.0,0.0,0.0,0.0,0.0,0.0,0.05384615436196327,-0.14179487526416779,10.596923828125,0.0,0.0,0.0,0.0,0.0,0.0,0.0,0.0,0.0
1646244539.1575258,6732,1646244539,157023373,,0.0,0.0,0.0,0.0,0.0,0.0,0.0,0.0,0.0,0.0,0.0,0.0,0.0,0.018842745572328568,0.094306580722332,0.006166566163301468,0.0,0.0,0.0,0.0,0.0,0.0,0.0,0.0,0.0,0.17230769991874695,0.014358974993228912,10.749486923217773,0.0,0.0,0.0,0.0,0.0,0.0,0.0,0.0,0.0
1646244539.1596289,6733,1646244539,159263229,,0.0,0.0,0.0,0.0,0.0,0.0,0.0,0.0,0.0,0.0,0.0,0.0,0.0,-0.01098465733230114,0.11135080456733704,-0.01407345850020647,0.0,0.0,0.0,0.0,0.0,0.0,0.0,0.0,0.0,0.0,0.09512820839881897,10.79435920715332,0.0,0.0,0.0,0.0,0.0,0.0,0.0,0.0,0.0
1646244539.1620636,6734,1646244539,161487682,,0.0,0.0,0.0,0.0,0.0,0.0,0.0,0.0,0.0,0.0,0.0,0.0,0.0,-0.019506771117448807,0.06341390311717987,0.018949739634990692,0.0,0.0,0.0,0.0,0.0,0.0,0.0,0.0,0.0,-0.10948718339204788,-0.17589744925498962,10.884102821350098,0.0,0.0,0.0,0.0,0.0,0.0,0.0,0.0,0.0
1646244539.1650422,6735,1646244539,163707819,,0.0,0.0,0.0,0.0,0.0,0.0,0.0,0.0,0.0,0.0,0.0,0.0,0.0,-0.026963621377944946,0.0666097030043602,-0.017269250005483627,0.0,0.0,0.0,0.0,0.0,0.0,0.0,0.0,0.0,-0.41641026735305786,0.3912820518016815,11.429743766784668,0.0,0.0,0.0,0.0,0.0,0.0,0.0,0.0,0.0
1646244539.1663516,6736,1646244539,165943427,,0.0,0.0,0.0,0.0,0.0,0.0,0.0,0.0,0.0,0.0,0.0,0.0,0.0,0.00712483748793602,0.018672803416848183,0.03066764585673809,0.0,0.0,0.0,0.0,0.0,0.0,0.0,0.0,0.0,-0.3715384900569916,0.13461539149284363,11.666666984558105,0.0,0.0,0.0,0.0,0.0,0.0,0.0,0.0,0.0
1646244539.1686096,6737,1646244539,168245170,,0.0,0.0,0.0,0.0,0.0,0.0,0.0,0.0,0.0,0.0,0.0,0.0,0.0,-0.01844150573015213,0.013346482068300247,0.00723183061927557,0.0,0.0,0.0,0.0,0.0,0.0,0.0,0.0,0.0,-0.7125641107559204,0.4092307686805725,11.569744110107422,0.0,0.0,0.0,0.0,0.0,0.0,0.0,0.0,0.0
1646244539.1707594,6738,1646244539,170455260,,0.0,0.0,0.0,0.0,0.0,0.0,0.0,0.0,0.0,0.0,0.0,0.0,0.0,-0.0077888634987175465,-0.005828278139233589,0.002970772795379162,0.0,0.0,0.0,0.0,0.0,0.0,0.0,0.0,0.0,-0.6712821125984192,-0.06282051652669907,11.271795272827148,0.0,0.0,0.0,0.0,0.0,0.0,0.0,0.0,0.0
1646244539.173058,6739,1646244539,172684191,,0.0,0.0,0.0,0.0,0.0,0.0,0.0,0.0,0.0,0.0,0.0,0.0,0.0,0.011385894380509853,-0.02713356725871563,0.01255815289914608,0.0,0.0,0.0,0.0,0.0,0.0,0.0,0.0,0.0,-0.2943589687347412,0.25487178564071655,11.275383949279785,0.0,0.0,0.0,0.0,0.0,0.0,0.0,0.0,0.0
1646244539.1752503,6740,1646244539,174914030,,0.0,0.0,0.0,0.0,0.0,0.0,0.0,0.0,0.0,0.0,0.0,0.0,0.0,0.0103206317871809,-0.029264096170663834,-0.02046504244208336,0.0,0.0,0.0,0.0,0.0,0.0,0.0,0.0,0.0,-0.7341026067733765,0.15974359214305878,11.234103202819824,0.0,0.0,0.0,0.0,0.0,0.0,0.0,0.0,0.0
1646244539.177471,6741,1646244539,177203169,,0.0,0.0,0.0,0.0,0.0,0.0,0.0,0.0,0.0,0.0,0.0,0.0,0.0,0.019908009096980095,-0.05909150093793869,-0.021530307829380035,0.0,0.0,0.0,0.0,0.0,0.0,0.0,0.0,0.0,-0.6353846788406372,-0.007179487496614456,10.986410140991211,0.0,0.0,0.0,0.0,0.0,0.0,0.0,0.0,0.0
1646244539.1797798,6742,1646244539,179435890,,0.0,0.0,0.0,0.0,0.0,0.0,0.0,0.0,0.0,0.0,0.0,0.0,0.0,0.027364861220121384,-0.07613572478294373,-0.0034208132419735193,0.0,0.0,0.0,0.0,0.0,0.0,0.0,0.0,0.0,-0.8094872236251831,0.26923078298568726,11.287948608398438,0.0,0.0,0.0,0.0,0.0,0.0,0.0,0.0,0.0
1646244539.1820972,6743,1646244539,181680438,,0.0,0.0,0.0,0.0,0.0,0.0,0.0,0.0,0.0,0.0,0.0,0.0,0.0,0.008190101943910122,-0.08039677888154984,-0.0023555487859994173,0.0,0.0,0.0,0.0,0.0,0.0,0.0,0.0,0.0,-0.6730769276618958,-0.14000000059604645,10.665128707885742,0.0,0.0,0.0,0.0,0.0,0.0,0.0,0.0,0.0
1646244539.1843493,6744,1646244539,183930572,,0.0,0.0,0.0,0.0,0.0,0.0,0.0,0.0,0.0,0.0,0.0,0.0,0.0,0.00712483748793602,-0.08359257131814957,-0.015138722956180573,0.0,0.0,0.0,0.0,0.0,0.0,0.0,0.0,0.0,-0.6838461756706238,0.12564103305339813,10.918205261230469,0.0,0.0,0.0,0.0,0.0,0.0,0.0,0.0,0.0
1646244539.1866074,6745,1646244539,186234527,,0.0,0.0,0.0,0.0,0.0,0.0,0.0,0.0,0.0,0.0,0.0,0.0,0.0,0.015646953135728836,-0.1006368026137352,-0.03324821963906288,0.0,0.0,0.0,0.0,0.0,0.0,0.0,0.0,0.0,-0.5348718166351318,0.1382051259279251,10.4910249710083,0.0,0.0,0.0,0.0,0.0,0.0,0.0,0.0,0.0
1646244539.1888602,6746,1646244539,188468769,,0.0,0.0,0.0,0.0,0.0,0.0,0.0,0.0,0.0,0.0,0.0,0.0,0.0,-0.0013972773449495435,-0.08252730965614319,-0.009812399744987488,0.0,0.0,0.0,0.0,0.0,0.0,0.0,0.0,0.0,-0.7161538600921631,0.2710256576538086,10.787178993225098,0.0,0.0,0.0,0.0,0.0,0.0,0.0,0.0,0.0
1646244539.1910586,6747,1646244539,190675638,,0.0,0.0,0.0,0.0,0.0,0.0,0.0,0.0,0.0,0.0,0.0,0.0,0.0,-0.016310978680849075,-0.08998416364192963,-0.04283559322357178,0.0,0.0,0.0,0.0,0.0,0.0,0.0,0.0,0.0,-0.8992307782173157,0.21717949211597443,10.534102439880371,0.0,0.0,0.0,0.0,0.0,0.0,0.0,0.0,0.0
1646244539.1932611,6748,1646244539,192894850,,0.0,0.0,0.0,0.0,0.0,0.0,0.0,0.0,0.0,0.0,0.0,0.0,0.0,-0.02589835785329342,-0.11981156468391418,-0.015138722956180573,0.0,0.0,0.0,0.0,0.0,0.0,0.0,0.0,0.0,-0.7610256671905518,0.37871795892715454,10.521538734436035,0.0,0.0,0.0,0.0,0.0,0.0,0.0,0.0,0.0
1646244539.195539,6749,1646244539,195196460,,0.0,0.0,0.0,0.0,0.0,0.0,0.0,0.0,0.0,0.0,0.0,0.0,0.0,-0.024833092465996742,-0.10596312582492828,-0.043900858610868454,0.0,0.0,0.0,0.0,0.0,0.0,0.0,0.0,0.0,-0.5833333134651184,-0.03410256281495094,10.167948722839355,0.0,0.0,0.0,0.0,0.0,0.0,0.0,0.0,0.0
1646244539.197901,6750,1646244539,197443709,,0.0,0.0,0.0,0.0,0.0,0.0,0.0,0.0,0.0,0.0,0.0,0.0,0.0,-0.03548574075102806,-0.10809365659952164,-0.027921894565224648,0.0,0.0,0.0,0.0,0.0,0.0,0.0,0.0,0.0,-0.6210256814956665,0.01974359154701233,10.184102058410645,0.0,0.0,0.0,0.0,0.0,0.0,0.0,0.0,0.0
1646244539.200108,6751,1646244539,199700382,,0.0,0.0,0.0,0.0,0.0,0.0,0.0,0.0,0.0,0.0,0.0,0.0,0.0,-0.03868153318762779,-0.12087682634592056,-0.043900858610868454,0.0,0.0,0.0,0.0,0.0,0.0,0.0,0.0,0.0,-0.3410256505012512,0.14000000059604645,10.173333168029785,0.0,0.0,0.0,0.0,0.0,0.0,0.0,0.0,0.0
1646244539.2023482,6752,1646244539,201974360,,0.0,0.0,0.0,0.0,0.0,0.0,0.0,0.0,0.0,0.0,0.0,0.0,0.0,-0.03548574075102806,-0.10809365659952164,-0.0023555487859994173,0.0,0.0,0.0,0.0,0.0,0.0,0.0,0.0,0.0,-0.6048718094825745,0.030512820929288864,9.873589515686035,0.0,0.0,0.0,0.0,0.0,0.0,0.0,0.0,0.0
1646244539.2046297,6753,1646244539,204251647,,0.0,0.0,0.0,0.0,0.0,0.0,0.0,0.0,0.0,0.0,0.0,0.0,0.0,-0.022702563554048538,-0.14324739575386047,-0.02046504244208336,0.0,0.0,0.0,0.0,0.0,0.0,0.0,0.0,0.0,-0.5761538743972778,0.21897436678409576,9.977692604064941,0.0,0.0,0.0,0.0,0.0,0.0,0.0,0.0,0.0
1646244539.2083893,6754,1646244539,206510936,,0.0,0.0,0.0,0.0,0.0,0.0,0.0,0.0,0.0,0.0,0.0,0.0,0.0,0.011385894380509853,-0.1283336877822876,-0.031117688864469528,0.0,0.0,0.0,0.0,0.0,0.0,0.0,0.0,0.0,-0.5887179374694824,0.19384616613388062,9.64025592803955,0.0,0.0,0.0,0.0,0.0,0.0,0.0,0.0,0.0
1646244539.2090304,6755,1646244539,208707517,,0.0,0.0,0.0,0.0,0.0,0.0,0.0,0.0,0.0,0.0,0.0,0.0,0.0,-0.014180450700223446,-0.13046421110630035,-0.017269250005483627,0.0,0.0,0.0,0.0,0.0,0.0,0.0,0.0,0.0,-0.3212820589542389,-0.21717949211597443,9.35487174987793,0.0,0.0,0.0,0.0,0.0,0.0,0.0,0.0,0.0
1646244539.2112925,6756,1646244539,210900662,,0.0,0.0,0.0,0.0,0.0,0.0,0.0,0.0,0.0,0.0,0.0,0.0,0.0,0.006059573031961918,-0.13579054176807404,-0.006616605911403894,0.0,0.0,0.0,0.0,0.0,0.0,0.0,0.0,0.0,-0.5438461303710938,0.25128206610679626,9.762307167053223,0.0,0.0,0.0,0.0,0.0,0.0,0.0,0.0,0.0
1646244539.213572,6757,1646244539,213132363,,0.0,0.0,0.0,0.0,0.0,0.0,0.0,0.0,0.0,0.0,0.0,0.0,0.0,0.008190101943910122,-0.15922635793685913,-0.035378746688365936,0.0,0.0,0.0,0.0,0.0,0.0,0.0,0.0,0.0,-0.41102564334869385,-0.03589743748307228,9.692307472229004,0.0,0.0,0.0,0.0,0.0,0.0,0.0,0.0,0.0
1646244539.2157214,6758,1646244539,215345147,,0.0,0.0,0.0,0.0,0.0,0.0,0.0,0.0,0.0,0.0,0.0,0.0,0.0,0.011385894380509853,-0.14005160331726074,-0.011942928656935692,0.0,0.0,0.0,0.0,0.0,0.0,0.0,0.0,0.0,-0.4092307686805725,0.5851281881332397,9.677948951721191,0.0,0.0,0.0,0.0,0.0,0.0,0.0,0.0,0.0
1646244539.2181258,6759,1646244539,217564248,,0.0,0.0,0.0,0.0,0.0,0.0,0.0,0.0,0.0,0.0,0.0,0.0,0.0,0.02523433417081833,-0.1752053052186966,-0.006616605911403894,0.0,0.0,0.0,0.0,0.0,0.0,0.0,0.0,0.0,-0.43435898423194885,-0.09333333373069763,9.638461112976074,0.0,0.0,0.0,0.0,0.0,0.0,0.0,0.0,0.0
1646244539.2200413,6760,1646244539,219768269,,0.0,0.0,0.0,0.0,0.0,0.0,0.0,0.0,0.0,0.0,0.0,0.0,0.0,0.03375644609332085,-0.16881372034549713,-0.015138722956180573,0.0,0.0,0.0,0.0,0.0,0.0,0.0,0.0,0.0,-0.5115384459495544,0.3625641167163849,9.773077011108398,0.0,0.0,0.0,0.0,0.0,0.0,0.0,0.0,0.0
1646244539.2224693,6761,1646244539,221999037,,0.0,0.0,0.0,0.0,0.0,0.0,0.0,0.0,0.0,0.0,0.0,0.0,0.0,0.012451158836483955,-0.18585795164108276,-0.02685662917792797,0.0,0.0,0.0,0.0,0.0,0.0,0.0,0.0,0.0,-0.24230769276618958,-0.19384616613388062,9.724615097045898,0.0,0.0,0.0,0.0,0.0,0.0,0.0,0.0,0.0
1646244539.2246938,6762,1646244539,224315586,,0.0,0.0,0.0,0.0,0.0,0.0,0.0,0.0,0.0,0.0,0.0,0.0,0.0,0.0358869731426239,-0.1656179279088974,-0.0034208132419735193,0.0,0.0,0.0,0.0,0.0,0.0,0.0,0.0,0.0,-0.4235897660255432,-0.22256410121917725,9.665384292602539,0.0,0.0,0.0,0.0,0.0,0.0,0.0,0.0,0.0
1646244539.2268658,6763,1646244539,226516960,,0.0,0.0,0.0,0.0,0.0,0.0,0.0,0.0,0.0,0.0,0.0,0.0,0.0,0.013516423292458057,-0.18692322075366974,-0.021530307829380035,0.0,0.0,0.0,0.0,0.0,0.0,0.0,0.0,0.0,-0.3715384900569916,0.2800000011920929,9.733589172363281,0.0,0.0,0.0,0.0,0.0,0.0,0.0,0.0,0.0
1646244539.2291207,6764,1646244539,228752482,,0.0,0.0,0.0,0.0,0.0,0.0,0.0,0.0,0.0,0.0,0.0,0.0,0.0,0.00925536546856165,-0.18159689009189606,-0.015138722956180573,0.0,0.0,0.0,0.0,0.0,0.0,0.0,0.0,0.0,-0.4307692348957062,-0.08794872462749481,9.668973922729492,0.0,0.0,0.0,0.0,0.0,0.0,0.0,0.0,0.0
1646244539.2312896,6765,1646244539,230963692,,0.0,0.0,0.0,0.0,0.0,0.0,0.0,0.0,0.0,0.0,0.0,0.0,0.0,0.00712483748793602,-0.18159689009189606,-0.018334513530135155,0.0,0.0,0.0,0.0,0.0,0.0,0.0,0.0,0.0,-0.5187179446220398,0.3482051491737366,9.89871883392334,0.0,0.0,0.0,0.0,0.0,0.0,0.0,0.0,0.0
1646244539.233576,6766,1646244539,233220257,,0.0,0.0,0.0,0.0,0.0,0.0,0.0,0.0,0.0,0.0,0.0,0.0,0.0,-0.0024625419173389673,-0.20609797537326813,-0.024726100265979767,0.0,0.0,0.0,0.0,0.0,0.0,0.0,0.0,0.0,-0.30512821674346924,-0.048461541533470154,9.451794624328613,0.0,0.0,0.0,0.0,0.0,0.0,0.0,0.0,0.0
1646244539.2357934,6767,1646244539,235471573,,0.0,0.0,0.0,0.0,0.0,0.0,0.0,0.0,0.0,0.0,0.0,0.0,0.0,-0.014180450700223446,-0.21142429113388062,-0.0076818703673779964,0.0,0.0,0.0,0.0,0.0,0.0,0.0,0.0,0.0,-0.30153846740722656,0.44871795177459717,9.670769691467285,0.0,0.0,0.0,0.0,0.0,0.0,0.0,0.0,0.0
1646244539.2382088,6768,1646244539,237723010,,0.0,0.0,0.0,0.0,0.0,0.0,0.0,0.0,0.0,0.0,0.0,0.0,0.0,0.008190101943910122,-0.20609797537326813,-0.024726100265979767,0.0,0.0,0.0,0.0,0.0,0.0,0.0,0.0,0.0,-0.20461538434028625,0.26025640964508057,9.566666603088379,0.0,0.0,0.0,0.0,0.0,0.0,0.0,0.0,0.0
1646244539.2403917,6769,1646244539,239979068,,0.0,0.0,0.0,0.0,0.0,0.0,0.0,0.0,0.0,0.0,0.0,0.0,0.0,0.013516423292458057,-0.221011683344841,0.00723183061927557,0.0,0.0,0.0,0.0,0.0,0.0,0.0,0.0,0.0,-0.19564102590084076,0.2117948830127716,9.74794864654541,0.0,0.0,0.0,0.0,0.0,0.0,0.0,0.0,0.0
1646244539.2425556,6770,1646244539,242179639,,0.0,0.0,0.0,0.0,0.0,0.0,0.0,0.0,0.0,0.0,0.0,0.0,0.0,-0.0013972773449495435,-0.19651059806346893,-0.030052425339818,0.0,0.0,0.0,0.0,0.0,0.0,0.0,0.0,0.0,-0.1705128252506256,0.2620512843132019,9.39794921875,0.0,0.0,0.0,0.0,0.0,0.0,0.0,0.0,0.0
1646244539.2448761,6771,1646244539,244486942,,0.0,0.0,0.0,0.0,0.0,0.0,0.0,0.0,0.0,0.0,0.0,0.0,0.0,-0.0024625419173389673,-0.19224953651428223,-0.01407345850020647,0.0,0.0,0.0,0.0,0.0,0.0,0.0,0.0,0.0,-0.09333333373069763,0.05564102530479431,9.433846473693848,0.0,0.0,0.0,0.0,0.0,0.0,0.0,0.0,0.0
1646244539.24709,6772,1646244539,246691788,,0.0,0.0,0.0,0.0,0.0,0.0,0.0,0.0,0.0,0.0,0.0,0.0,0.0,0.02097327448427677,-0.1975758671760559,-0.022595571354031563,0.0,0.0,0.0,0.0,0.0,0.0,0.0,0.0,0.0,-0.09692308306694031,0.3410256505012512,9.559487342834473,0.0,0.0,0.0,0.0,0.0,0.0,0.0,0.0,0.0
1646244539.2506735,6773,1646244539,248961084,,0.0,0.0,0.0,0.0,0.0,0.0,0.0,0.0,0.0,0.0,0.0,0.0,0.0,-0.01098465733230114,-0.1752053052186966,0.0008402442326769233,0.0,0.0,0.0,0.0,0.0,0.0,0.0,0.0,0.0,0.09512820839881897,-0.010769231244921684,9.265128135681152,0.0,0.0,0.0,0.0,0.0,0.0,0.0,0.0,0.0
1646244539.2515552,6774,1646244539,251274523,,0.0,0.0,0.0,0.0,0.0,0.0,0.0,0.0,0.0,0.0,0.0,0.0,0.0,0.024169068783521652,-0.17307478189468384,0.008297095075249672,0.0,0.0,0.0,0.0,0.0,0.0,0.0,0.0,0.0,0.11128205060958862,-0.16333334147930145,8.575897216796875,0.0,0.0,0.0,0.0,0.0,0.0,0.0,0.0,0.0
1646244539.2537959,6775,1646244539,253500216,,0.0,0.0,0.0,0.0,0.0,0.0,0.0,0.0,0.0,0.0,0.0,0.0,0.0,0.0103206317871809,-0.16455265879631042,0.0008402442326769233,0.0,0.0,0.0,0.0,0.0,0.0,0.0,0.0,0.0,0.2746153771877289,0.49897435307502747,9.50743579864502,0.0,0.0,0.0,0.0,0.0,0.0,0.0,0.0,0.0
1646244539.2559526,6776,1646244539,255742643,,0.0,0.0,0.0,0.0,0.0,0.0,0.0,0.0,0.0,0.0,0.0,0.0,0.0,-0.01098465733230114,-0.14537791907787323,0.0008402442326769233,0.0,0.0,0.0,0.0,0.0,0.0,0.0,0.0,0.0,0.007179487496614456,-0.07897436618804932,8.568717956542969,0.0,0.0,0.0,0.0,0.0,0.0,0.0,0.0,0.0
1646244539.2583287,6777,1646244539,257967060,,0.0,0.0,0.0,0.0,0.0,0.0,0.0,0.0,0.0,0.0,0.0,0.0,0.0,0.03162591904401779,-0.13366000354290009,-0.009812399744987488,0.0,0.0,0.0,0.0,0.0,0.0,0.0,0.0,0.0,0.08435897529125214,0.3679487407207489,8.737436294555664,0.0,0.0,0.0,0.0,0.0,0.0,0.0,0.0,0.0
1646244539.2606955,6778,1646244539,260284874,,0.0,0.0,0.0,0.0,0.0,0.0,0.0,0.0,0.0,0.0,0.0,0.0,0.0,0.00925536546856165,-0.11235471069812775,0.017884474247694016,0.0,0.0,0.0,0.0,0.0,0.0,0.0,0.0,0.0,0.06282051652669907,-0.10948718339204788,9.211281776428223,0.0,0.0,0.0,0.0,0.0,0.0,0.0,0.0,0.0
1646244539.2629557,6779,1646244539,262486317,,0.0,0.0,0.0,0.0,0.0,0.0,0.0,0.0,0.0,0.0,0.0,0.0,0.0,0.0007332512177526951,-0.11341997981071472,-0.015138722956180573,0.0,0.0,0.0,0.0,0.0,0.0,0.0,0.0,0.0,-0.06102564185857773,0.2853846251964569,9.03897476196289,0.0,0.0,0.0,0.0,0.0,0.0,0.0,0.0,0.0
1646244539.265101,6780,1646244539,264722592,,0.0,0.0,0.0,0.0,0.0,0.0,0.0,0.0,0.0,0.0,0.0,0.0,0.0,0.0028637798968702555,-0.0676136165857315,0.006166566163301468,0.0,0.0,0.0,0.0,0.0,0.0,0.0,0.0,0.0,0.20820513367652893,0.012564103119075298,8.231282234191895,0.0,0.0,0.0,0.0,0.0,0.0,0.0,0.0,0.0
1646244539.2673583,6781,1646244539,266994496,,0.0,0.0,0.0,0.0,0.0,0.0,0.0,0.0,0.0,0.0,0.0,0.0,0.0,0.008190101943910122,-0.04311252757906914,-0.021530307829380035,0.0,0.0,0.0,0.0,0.0,0.0,0.0,0.0,0.0,0.32846155762672424,0.39666667580604553,9.168205261230469,0.0,0.0,0.0,0.0,0.0,0.0,0.0,0.0,0.0
1646244539.2695634,6782,1646244539,269229420,,0.0,0.0,0.0,0.0,0.0,0.0,0.0,0.0,0.0,0.0,0.0,0.0,0.0,-0.01098465733230114,-0.028198830783367157,-0.01087766420096159,0.0,0.0,0.0,0.0,0.0,0.0,0.0,0.0,0.0,0.24051281809806824,0.22794872522354126,8.071538925170898,0.0,0.0,0.0,0.0,0.0,0.0,0.0,0.0,0.0
1646244539.2717123,6783,1646244539,271416832,,0.0,0.0,0.0,0.0,0.0,0.0,0.0,0.0,0.0,0.0,0.0,0.0,0.0,-0.017376242205500603,-0.0026324838399887085,0.03173290938138962,0.0,0.0,0.0,0.0,0.0,0.0,0.0,0.0,0.0,0.42897436022758484,-0.13641025125980377,8.947436332702637,0.0,0.0,0.0,0.0,0.0,0.0,0.0,0.0,0.0
1646244539.2740166,6784,1646244539,273607967,,0.0,0.0,0.0,0.0,0.0,0.0,0.0,0.0,0.0,0.0,0.0,0.0,0.0,-0.009919392876327038,0.011215953156352043,-0.00022502047067973763,0.0,0.0,0.0,0.0,0.0,0.0,0.0,0.0,0.0,0.22615385055541992,0.2297435998916626,9.069487571716309,0.0,0.0,0.0,0.0,0.0,0.0,0.0,0.0,0.0
1646244539.2762744,6785,1646244539,275838333,,0.0,0.0,0.0,0.0,0.0,0.0,0.0,0.0,0.0,0.0,0.0,0.0,0.0,-0.023767828941345215,0.032521240413188934,0.002970772795379162,0.0,0.0,0.0,0.0,0.0,0.0,0.0,0.0,0.0,0.40205129981040955,-0.4182051420211792,8.581282615661621,0.0,0.0,0.0,0.0,0.0,0.0,0.0,0.0,0.0
1646244539.2786086,6786,1646244539,278166389,,0.0,0.0,0.0,0.0,0.0,0.0,0.0,0.0,0.0,0.0,0.0,0.0,0.0,-0.037616267800331116,0.031455978751182556,-0.0012902843300253153,0.0,0.0,0.0,0.0,0.0,0.0,0.0,0.0,0.0,0.5653846263885498,0.3302564322948456,8.904358863830566,0.0,0.0,0.0,0.0,0.0,0.0,0.0,0.0,0.0
1646244539.2808743,6787,1646244539,280380404,,0.0,0.0,0.0,0.0,0.0,0.0,0.0,0.0,0.0,0.0,0.0,0.0,0.0,-0.01844150573015213,0.0527612641453743,0.0019055086886510253,0.0,0.0,0.0,0.0,0.0,0.0,0.0,0.0,0.0,0.7700000405311584,-0.06820512562990189,8.70692253112793,0.0,0.0,0.0,0.0,0.0,0.0,0.0,0.0,0.0
1646244539.282974,6788,1646244539,282580001,,0.0,0.0,0.0,0.0,0.0,0.0,0.0,0.0,0.0,0.0,0.0,0.0,0.0,-0.03655100241303444,0.06341390311717987,0.005101301707327366,0.0,0.0,0.0,0.0,0.0,0.0,0.0,0.0,0.0,0.38769233226776123,0.18128205835819244,8.852307319641113,0.0,0.0,0.0,0.0,0.0,0.0,0.0,0.0,0.0
1646244539.2852812,6789,1646244539,284788766,,0.0,0.0,0.0,0.0,0.0,0.0,0.0,0.0,0.0,0.0,0.0,0.0,0.0,-0.024833092465996742,0.09217604994773865,0.0232107974588871,0.0,0.0,0.0,0.0,0.0,0.0,0.0,0.0,0.0,0.7358974814414978,-0.19384616613388062,9.107179641723633,0.0,0.0,0.0,0.0,0.0,0.0,0.0,0.0,0.0
1646244539.2882435,6790,1646244539,287027184,,0.0,0.0,0.0,0.0,0.0,0.0,0.0,0.0,0.0,0.0,0.0,0.0,0.0,-0.03228994458913803,0.09324131160974503,0.024276060983538628,0.0,0.0,0.0,0.0,0.0,0.0,0.0,0.0,0.0,0.6174359321594238,0.21000000834465027,8.825385093688965,0.0,0.0,0.0,0.0,0.0,0.0,0.0,0.0,0.0
1646244539.2899604,6791,1646244539,289249180,,0.0,0.0,0.0,0.0,0.0,0.0,0.0,0.0,0.0,0.0,0.0,0.0,0.0,-0.03548574075102806,0.09856763482093811,0.02001500315964222,0.0,0.0,0.0,0.0,0.0,0.0,0.0,0.0,0.0,0.859743595123291,-0.3446153998374939,8.96179485321045,0.0,0.0,0.0,0.0,0.0,0.0,0.0,0.0,0.0
1646244539.2917943,6792,1646244539,291494023,,0.0,0.0,0.0,0.0,0.0,0.0,0.0,0.0,0.0,0.0,0.0,0.0,0.0,-0.03868153318762779,0.094306580722332,0.03492870554327965,0.0,0.0,0.0,0.0,0.0,0.0,0.0,0.0,0.0,0.6030769348144531,-0.2530769407749176,9.04435920715332,0.0,0.0,0.0,0.0,0.0,0.0,0.0,0.0,0.0
1646244539.2943032,6793,1646244539,293732822,,0.0,0.0,0.0,0.0,0.0,0.0,0.0,0.0,0.0,0.0,0.0,0.0,0.0,-0.031224681064486504,0.10708974301815033,0.014688681811094284,0.0,0.0,0.0,0.0,0.0,0.0,0.0,0.0,0.0,0.6587179899215698,0.15794873237609863,9.532564163208008,0.0,0.0,0.0,0.0,0.0,0.0,0.0,0.0,0.0
1646244539.2963793,6794,1646244539,295987241,,0.0,0.0,0.0,0.0,0.0,0.0,0.0,0.0,0.0,0.0,0.0,0.0,0.0,-0.03655100241303444,0.12839503586292267,0.025341326370835304,0.0,0.0,0.0,0.0,0.0,0.0,0.0,0.0,0.0,0.6982051730155945,-0.5276923179626465,9.121538162231445,0.0,0.0,0.0,0.0,0.0,0.0,0.0,0.0,0.0
1646244539.2985744,6795,1646244539,298205912,,0.0,0.0,0.0,0.0,0.0,0.0,0.0,0.0,0.0,0.0,0.0,0.0,0.0,-0.01844150573015213,0.10495921224355698,0.02747185342013836,0.0,0.0,0.0,0.0,0.0,0.0,0.0,0.0,0.0,0.782564103603363,0.07897436618804932,9.45718002319336,0.0,0.0,0.0,0.0,0.0,0.0,0.0,0.0,0.0
1646244539.3009248,6796,1646244539,300431601,,0.0,0.0,0.0,0.0,0.0,0.0,0.0,0.0,0.0,0.0,0.0,0.0,0.0,-0.02909415028989315,0.10708974301815033,0.013623417355120182,0.0,0.0,0.0,0.0,0.0,0.0,0.0,0.0,0.0,0.6766666769981384,-0.35538461804389954,9.371026039123535,0.0,0.0,0.0,0.0,0.0,0.0,0.0,0.0,0.0
1646244539.3030927,6797,1646244539,302646596,,0.0,0.0,0.0,0.0,0.0,0.0,0.0,0.0,0.0,0.0,0.0,0.0,0.0,-0.004593071062117815,0.12839503586292267,0.024276060983538628,0.0,0.0,0.0,0.0,0.0,0.0,0.0,0.0,0.0,0.6264103055000305,-0.35538461804389954,10.543076515197754,0.0,0.0,0.0,0.0,0.0,0.0,0.0,0.0,0.0
1646244539.30625,6798,1646244539,304863749,,0.0,0.0,0.0,0.0,0.0,0.0,0.0,0.0,0.0,0.0,0.0,0.0,0.0,0.01777748018503189,0.11348132789134979,0.02001500315964222,0.0,0.0,0.0,0.0,0.0,0.0,0.0,0.0,0.0,0.7107692360877991,-0.3858974575996399,9.270512580871582,0.0,0.0,0.0,0.0,0.0,0.0,0.0,0.0,0.0
1646244539.307516,6799,1646244539,307087332,,0.0,0.0,0.0,0.0,0.0,0.0,0.0,0.0,0.0,0.0,0.0,0.0,0.0,-0.023767828941345215,0.1369171440601349,0.029602382332086563,0.0,0.0,0.0,0.0,0.0,0.0,0.0,0.0,0.0,0.5546153783798218,-0.06282051652669907,9.14307689666748,0.0,0.0,0.0,0.0,0.0,0.0,0.0,0.0,0.0
1646244539.309685,6800,1646244539,309276179,,0.0,0.0,0.0,0.0,0.0,0.0,0.0,0.0,0.0,0.0,0.0,0.0,0.0,0.015646953135728836,0.11454659700393677,0.024276060983538628,0.0,0.0,0.0,0.0,0.0,0.0,0.0,0.0,0.0,0.5887179374694824,0.33384618163108826,9.518204689025879,0.0,0.0,0.0,0.0,0.0,0.0,0.0,0.0,0.0
1646244539.3119268,6801,1646244539,311506167,,0.0,0.0,0.0,0.0,0.0,0.0,0.0,0.0,0.0,0.0,0.0,0.0,0.0,0.012451158836483955,0.12626449763774872,0.024276060983538628,0.0,0.0,0.0,0.0,0.0,0.0,0.0,0.0,0.0,0.7071795463562012,-1.0841026306152344,8.678205490112305,0.0,0.0,0.0,0.0,0.0,0.0,0.0,0.0,0.0
1646244539.3142362,6802,1646244539,313751529,,0.0,0.0,0.0,0.0,0.0,0.0,0.0,0.0,0.0,0.0,0.0,0.0,0.0,0.015646953135728836,0.17100562155246735,0.014688681811094284,0.0,0.0,0.0,0.0,0.0,0.0,0.0,0.0,0.0,0.4056410491466522,0.005384615622460842,10.476666450500488,0.0,0.0,0.0,0.0,0.0,0.0,0.0,0.0,0.0
1646244539.3164456,6803,1646244539,316047248,,0.0,0.0,0.0,0.0,0.0,0.0,0.0,0.0,0.0,0.0,0.0,0.0,0.0,-0.0003320134710520506,0.1688750833272934,0.050907667726278305,0.0,0.0,0.0,0.0,0.0,0.0,0.0,0.0,0.0,-0.012564103119075298,0.01974359154701233,9.566666603088379,0.0,0.0,0.0,0.0,0.0,0.0,0.0,0.0,0.0
1646244539.3187613,6804,1646244539,318312359,,0.0,0.0,0.0,0.0,0.0,0.0,0.0,0.0,0.0,0.0,0.0,0.0,0.0,0.02523433417081833,0.1773972064256668,0.01255815289914608,0.0,0.0,0.0,0.0,0.0,0.0,0.0,0.0,0.0,0.5312820672988892,-0.3392307758331299,8.960000038146973,0.0,0.0,0.0,0.0,0.0,0.0,0.0,0.0,0.0
1646244539.3211937,6805,1646244539,320526189,,0.0,0.0,0.0,0.0,0.0,0.0,0.0,0.0,0.0,0.0,0.0,0.0,0.0,0.00925536546856165,0.17952772974967957,0.005101301707327366,0.0,0.0,0.0,0.0,0.0,0.0,0.0,0.0,0.0,0.07717949151992798,-0.1238461583852768,9.740769386291504,0.0,0.0,0.0,0.0,0.0,0.0,0.0,0.0,0.0
1646244539.3232605,6806,1646244539,322843038,,0.0,0.0,0.0,0.0,0.0,0.0,0.0,0.0,0.0,0.0,0.0,0.0,0.0,-0.009919392876327038,0.20296353101730347,0.03812449797987938,0.0,0.0,0.0,0.0,0.0,0.0,0.0,0.0,0.0,-0.2117948830127716,-0.2530769407749176,9.740769386291504,0.0,0.0,0.0,0.0,0.0,0.0,0.0,0.0,0.0
1646244539.3255258,6807,1646244539,325102369,,0.0,0.0,0.0,0.0,0.0,0.0,0.0,0.0,0.0,0.0,0.0,0.0,0.0,-0.008854128420352936,0.2242688238620758,-0.0023555487859994173,0.0,0.0,0.0,0.0,0.0,0.0,0.0,0.0,0.0,-0.04307692497968674,0.12923076748847961,9.091026306152344,0.0,0.0,0.0,0.0,0.0,0.0,0.0,0.0,0.0
1646244539.3277388,6808,1646244539,327320439,,0.0,0.0,0.0,0.0,0.0,0.0,0.0,0.0,0.0,0.0,0.0,0.0,0.0,-0.019506771117448807,0.21894250810146332,0.010427623987197876,0.0,0.0,0.0,0.0,0.0,0.0,0.0,0.0,0.0,0.17230769991874695,-0.08974359184503555,10.182308197021484,0.0,0.0,0.0,0.0,0.0,0.0,0.0,0.0,0.0
1646244539.3310513,6809,1646244539,329551901,,0.0,0.0,0.0,0.0,0.0,0.0,0.0,0.0,0.0,0.0,0.0,0.0,0.0,0.0103206317871809,0.2285298854112625,0.043450821191072464,0.0,0.0,0.0,0.0,0.0,0.0,0.0,0.0,0.0,-0.4092307686805725,-0.13461539149284363,8.663846015930176,0.0,0.0,0.0,0.0,0.0,0.0,0.0,0.0,0.0
1646244539.3320913,6810,1646244539,331785145,,0.0,0.0,0.0,0.0,0.0,0.0,0.0,0.0,0.0,0.0,0.0,0.0,0.0,-0.022702563554048538,0.23172567784786224,0.0008402442326769233,0.0,0.0,0.0,0.0,0.0,0.0,0.0,0.0,0.0,0.05743589997291565,0.20820513367652893,10.39589786529541,0.0,0.0,0.0,0.0,0.0,0.0,0.0,0.0,0.0
1646244539.3344326,6811,1646244539,333982238,,0.0,0.0,0.0,0.0,0.0,0.0,0.0,0.0,0.0,0.0,0.0,0.0,0.0,-0.004593071062117815,0.24557411670684814,0.008297095075249672,0.0,0.0,0.0,0.0,0.0,0.0,0.0,0.0,0.0,0.09512820839881897,0.6838461756706238,9.932821273803711,0.0,0.0,0.0,0.0,0.0,0.0,0.0,0.0,0.0
1646244539.3367155,6812,1646244539,336346676,,0.0,0.0,0.0,0.0,0.0,0.0,0.0,0.0,0.0,0.0,0.0,0.0,0.0,0.015646953135728836,0.233856201171875,-0.021530307829380035,0.0,0.0,0.0,0.0,0.0,0.0,0.0,0.0,0.0,-0.3356410562992096,0.4092307686805725,8.712307929992676,0.0,0.0,0.0,0.0,0.0,0.0,0.0,0.0,0.0
1646244539.3389418,6813,1646244539,338550884,,0.0,0.0,0.0,0.0,0.0,0.0,0.0,0.0,0.0,0.0,0.0,0.0,0.0,0.023103805258870125,0.2285298854112625,0.03173290938138962,0.0,0.0,0.0,0.0,0.0,0.0,0.0,0.0,0.0,-0.29076921939849854,-0.22615385055541992,10.029743194580078,0.0,0.0,0.0,0.0,0.0,0.0,0.0,0.0,0.0
1646244539.3413079,6814,1646244539,340860469,,0.0,0.0,0.0,0.0,0.0,0.0,0.0,0.0,0.0,0.0,0.0,0.0,0.0,0.026299597695469856,0.22533409297466278,0.01575394533574581,0.0,0.0,0.0,0.0,0.0,0.0,0.0,0.0,0.0,-0.2979487180709839,-0.11128205060958862,10.220000267028809,0.0,0.0,0.0,0.0,0.0,0.0,0.0,0.0,0.0
1646244539.3435662,6815,1646244539,343131097,,0.0,0.0,0.0,0.0,0.0,0.0,0.0,0.0,0.0,0.0,0.0,0.0,0.0,0.006059573031961918,0.22213830053806305,0.03492870554327965,0.0,0.0,0.0,0.0,0.0,0.0,0.0,0.0,0.0,0.03589743748307228,0.14897435903549194,9.417692184448242,0.0,0.0,0.0,0.0,0.0,0.0,0.0,0.0,0.0
1646244539.345763,6816,1646244539,345349922,,0.0,0.0,0.0,0.0,0.0,0.0,0.0,0.0,0.0,0.0,0.0,0.0,0.0,0.044409092515707016,0.20402880012989044,0.02001500315964222,0.0,0.0,0.0,0.0,0.0,0.0,0.0,0.0,0.0,0.3769230842590332,0.19025641679763794,10.632820129394531,0.0,0.0,0.0,0.0,0.0,0.0,0.0,0.0,0.0
1646244539.347897,6817,1646244539,347552170,,0.0,0.0,0.0,0.0,0.0,0.0,0.0,0.0,0.0,0.0,0.0,0.0,0.0,0.0220385380089283,0.18165826797485352,0.039189763367176056,0.0,0.0,0.0,0.0,0.0,0.0,0.0,0.0,0.0,0.3069230914115906,0.2297435998916626,10.410257339477539,0.0,0.0,0.0,0.0,0.0,0.0,0.0,0.0,0.0
1646244539.3509676,6818,1646244539,349937757,,0.0,0.0,0.0,0.0,0.0,0.0,0.0,0.0,0.0,0.0,0.0,0.0,0.0,0.026299597695469856,0.18165826797485352,0.04132029414176941,0.0,0.0,0.0,0.0,0.0,0.0,0.0,0.0,0.0,-0.03769230842590332,0.01974359154701233,10.640000343322754,0.0,0.0,0.0,0.0,0.0,0.0,0.0,0.0,0.0
1646244539.3526838,6819,1646244539,352186451,,0.0,0.0,0.0,0.0,0.0,0.0,0.0,0.0,0.0,0.0,0.0,0.0,0.0,0.02949538826942444,0.12839503586292267,0.02001500315964222,0.0,0.0,0.0,0.0,0.0,0.0,0.0,0.0,0.0,-0.22435897588729858,0.044871795922517776,10.160768508911133,0.0,0.0,0.0,0.0,0.0,0.0,0.0,0.0,0.0
1646244539.354945,6820,1646244539,354529854,,0.0,0.0,0.0,0.0,0.0,0.0,0.0,0.0,0.0,0.0,0.0,0.0,0.0,0.01777748018503189,0.1358518898487091,0.03386344015598297,0.0,0.0,0.0,0.0,0.0,0.0,0.0,0.0,0.0,-0.003589743748307228,0.2153846174478531,11.381281852722168,0.0,0.0,0.0,0.0,0.0,0.0,0.0,0.0,0.0
1646244539.3571782,6821,1646244539,356713477,,0.0,0.0,0.0,0.0,0.0,0.0,0.0,0.0,0.0,0.0,0.0,0.0,0.0,-0.009919392876327038,0.094306580722332,0.022145532071590424,0.0,0.0,0.0,0.0,0.0,0.0,0.0,0.0,0.0,0.14358974993228912,0.0412820540368557,10.902050971984863,0.0,0.0,0.0,0.0,0.0,0.0,0.0,0.0,0.0
1646244539.3593543,6822,1646244539,359012809,,0.0,0.0,0.0,0.0,0.0,0.0,0.0,0.0,0.0,0.0,0.0,0.0,0.0,0.0007332512177526951,0.07406655699014664,0.032798174768686295,0.0,0.0,0.0,0.0,0.0,0.0,0.0,0.0,0.0,-0.044871795922517776,0.14538460969924927,10.44076919555664,0.0,0.0,0.0,0.0,0.0,0.0,0.0,0.0,0.0
1646244539.361596,6823,1646244539,361284230,,0.0,0.0,0.0,0.0,0.0,0.0,0.0,0.0,0.0,0.0,0.0,0.0,0.0,-0.01098465733230114,0.043173886835575104,0.006166566163301468,0.0,0.0,0.0,0.0,0.0,0.0,0.0,0.0,0.0,0.016153845936059952,-0.1794871836900711,11.418973922729492,0.0,0.0,0.0,0.0,0.0,0.0,0.0,0.0,0.0
1646244539.3639836,6824,1646244539,363496130,,0.0,0.0,0.0,0.0,0.0,0.0,0.0,0.0,0.0,0.0,0.0,0.0,0.0,-0.02909415028989315,0.04743494465947151,0.024276060983538628,0.0,0.0,0.0,0.0,0.0,0.0,0.0,0.0,0.0,-0.2925640940666199,0.11128205060958862,11.291539192199707,0.0,0.0,0.0,0.0,0.0,0.0,0.0,0.0,0.0
1646244539.366225,6825,1646244539,365787255,,0.0,0.0,0.0,0.0,0.0,0.0,0.0,0.0,0.0,0.0,0.0,0.0,0.0,-0.023767828941345215,0.028260184451937675,0.032798174768686295,0.0,0.0,0.0,0.0,0.0,0.0,0.0,0.0,0.0,-0.43794873356819153,-0.11128205060958862,11.086923599243164,0.0,0.0,0.0,0.0,0.0,0.0,0.0,0.0,0.0
1646244539.3683429,6826,1646244539,367993881,,0.0,0.0,0.0,0.0,0.0,0.0,0.0,0.0,0.0,0.0,0.0,0.0,0.0,-0.0013972773449495435,-0.013285127468407154,0.0019055086886510253,0.0,0.0,0.0,0.0,0.0,0.0,0.0,0.0,0.0,-0.5097435712814331,0.3033333420753479,11.440512657165527,0.0,0.0,0.0,0.0,0.0,0.0,0.0,0.0,0.0
1646244539.370567,6827,1646244539,370207825,,0.0,0.0,0.0,0.0,0.0,0.0,0.0,0.0,0.0,0.0,0.0,0.0,0.0,-0.009919392876327038,-0.03885146975517273,-0.013008194044232368,0.0,0.0,0.0,0.0,0.0,0.0,0.0,0.0,0.0,-0.8615384697914124,0.23153845965862274,11.30051326751709,0.0,0.0,0.0,0.0,0.0,0.0,0.0,0.0,0.0
1646244539.3737419,6828,1646244539,372435529,,0.0,0.0,0.0,0.0,0.0,0.0,0.0,0.0,0.0,0.0,0.0,0.0,0.0,-0.009919392876327038,-0.04311252757906914,0.009362359531223774,0.0,0.0,0.0,0.0,0.0,0.0,0.0,0.0,0.0,-0.7125641107559204,-0.048461541533470154,11.058205604553223,0.0,0.0,0.0,0.0,0.0,0.0,0.0,0.0,0.0
1646244539.3750553,6829,1646244539,374666695,,0.0,0.0,0.0,0.0,0.0,0.0,0.0,0.0,0.0,0.0,0.0,0.0,0.0,0.00712483748793602,-0.061222027987241745,0.010427623987197876,0.0,0.0,0.0,0.0,0.0,0.0,0.0,0.0,0.0,-0.8525640964508057,0.2674359083175659,11.063590049743652,0.0,0.0,0.0,0.0,0.0,0.0,0.0,0.0,0.0
1646244539.3772852,6830,1646244539,376898557,,0.0,0.0,0.0,0.0,0.0,0.0,0.0,0.0,0.0,0.0,0.0,0.0,0.0,-0.022702563554048538,-0.06654834747314453,0.0008402442326769233,0.0,0.0,0.0,0.0,0.0,0.0,0.0,0.0,0.0,-0.9979487061500549,-0.06282051652669907,11.108461380004883,0.0,0.0,0.0,0.0,0.0,0.0,0.0,0.0,0.0
1646244539.3794413,6831,1646244539,379103018,,0.0,0.0,0.0,0.0,0.0,0.0,0.0,0.0,0.0,0.0,0.0,0.0,0.0,-0.0013972773449495435,-0.04630832374095917,-0.0023555487859994173,0.0,0.0,0.0,0.0,0.0,0.0,0.0,0.0,0.0,-0.9656410217285156,0.19025641679763794,11.20358943939209,0.0,0.0,0.0,0.0,0.0,0.0,0.0,0.0,0.0
1646244539.3816602,6832,1646244539,381309842,,0.0,0.0,0.0,0.0,0.0,0.0,0.0,0.0,0.0,0.0,0.0,0.0,0.0,-0.022702563554048538,-0.08359257131814957,-0.024726100265979767,0.0,0.0,0.0,0.0,0.0,0.0,0.0,0.0,0.0,-0.6551282405853271,-0.1741025745868683,10.59871768951416,0.0,0.0,0.0,0.0,0.0,0.0,0.0,0.0,0.0
1646244539.3839304,6833,1646244539,383534882,,0.0,0.0,0.0,0.0,0.0,0.0,0.0,0.0,0.0,0.0,0.0,0.0,0.0,-0.009919392876327038,-0.07826624810695648,-0.02685662917792797,0.0,0.0,0.0,0.0,0.0,0.0,0.0,0.0,0.0,-0.7161538600921631,0.28358975052833557,10.880513191223145,0.0,0.0,0.0,0.0,0.0,0.0,0.0,0.0,0.0
1646244539.3862138,6834,1646244539,385749923,,0.0,0.0,0.0,0.0,0.0,0.0,0.0,0.0,0.0,0.0,0.0,0.0,0.0,-0.0024625419173389673,-0.08785363286733627,-0.00022502047067973763,0.0,0.0,0.0,0.0,0.0,0.0,0.0,0.0,0.0,-0.6317949295043945,0.09153846651315689,10.297179222106934,0.0,0.0,0.0,0.0,0.0,0.0,0.0,0.0,0.0
1646244539.388435,6835,1646244539,387983168,,0.0,0.0,0.0,0.0,0.0,0.0,0.0,0.0,0.0,0.0,0.0,0.0,0.0,0.0007332512177526951,-0.08465784043073654,-0.021530307829380035,0.0,0.0,0.0,0.0,0.0,0.0,0.0,0.0,0.0,-0.7843589782714844,0.5635897517204285,10.44435977935791,0.0,0.0,0.0,0.0,0.0,0.0,0.0,0.0,0.0
1646244539.390618,6836,1646244539,390273240,,0.0,0.0,0.0,0.0,0.0,0.0,0.0,0.0,0.0,0.0,0.0,0.0,0.0,-0.005658335518091917,-0.10809365659952164,-0.03644401207566261,0.0,0.0,0.0,0.0,0.0,0.0,0.0,0.0,0.0,-0.5043590068817139,0.26923078298568726,10.552051544189453,0.0,0.0,0.0,0.0,0.0,0.0,0.0,0.0,0.0
1646244539.392834,6837,1646244539,392505296,,0.0,0.0,0.0,0.0,0.0,0.0,0.0,0.0,0.0,0.0,0.0,0.0,0.0,-0.0013972773449495435,-0.09637574851512909,-0.021530307829380035,0.0,0.0,0.0,0.0,0.0,0.0,0.0,0.0,0.0,-0.6479487419128418,0.06282051652669907,10.110512733459473,0.0,0.0,0.0,0.0,0.0,0.0,0.0,0.0,0.0
1646244539.3951895,6838,1646244539,394729807,,0.0,0.0,0.0,0.0,0.0,0.0,0.0,0.0,0.0,0.0,0.0,0.0,0.0,0.02949538826942444,-0.1006368026137352,-0.028987158089876175,0.0,0.0,0.0,0.0,0.0,0.0,0.0,0.0,0.0,-0.44333335757255554,0.24051281809806824,10.29897403717041,0.0,0.0,0.0,0.0,0.0,0.0,0.0,0.0,0.0
1646244539.3972774,6839,1646244539,396949347,,0.0,0.0,0.0,0.0,0.0,0.0,0.0,0.0,0.0,0.0,0.0,0.0,0.0,-0.01098465733230114,-0.09531047940254211,-0.0162039864808321,0.0,0.0,0.0,0.0,0.0,0.0,0.0,0.0,0.0,-0.4505128264427185,0.05564102530479431,10.013589859008789,0.0,0.0,0.0,0.0,0.0,0.0,0.0,0.0,0.0
1646244539.399452,6840,1646244539,399154082,,0.0,0.0,0.0,0.0,0.0,0.0,0.0,0.0,0.0,0.0,0.0,0.0,0.0,0.023103805258870125,-0.1187463030219078,-0.03324821963906288,0.0,0.0,0.0,0.0,0.0,0.0,0.0,0.0,0.0,-0.4558974504470825,0.2297435998916626,10.336666107177734,0.0,0.0,0.0,0.0,0.0,0.0,0.0,0.0,0.0
1646244539.4020746,6841,1646244539,401359449,,0.0,0.0,0.0,0.0,0.0,0.0,0.0,0.0,0.0,0.0,0.0,0.0,0.0,0.00712483748793602,-0.1006368026137352,-0.018334513530135155,0.0,0.0,0.0,0.0,0.0,0.0,0.0,0.0,0.0,-0.3320513069629669,-0.11128205060958862,9.873589515686035,0.0,0.0,0.0,0.0,0.0,0.0,0.0,0.0,0.0
1646244539.4040186,6842,1646244539,403606519,,0.0,0.0,0.0,0.0,0.0,0.0,0.0,0.0,0.0,0.0,0.0,0.0,0.0,0.00925536546856165,-0.12620314955711365,-0.015138722956180573,0.0,0.0,0.0,0.0,0.0,0.0,0.0,0.0,0.0,-0.36615386605262756,0.4720512926578522,9.724615097045898,0.0,0.0,0.0,0.0,0.0,0.0,0.0,0.0,0.0
1646244539.4063122,6843,1646244539,405820590,,0.0,0.0,0.0,0.0,0.0,0.0,0.0,0.0,0.0,0.0,0.0,0.0,0.0,0.027364861220121384,-0.1283336877822876,-0.043900858610868454,0.0,0.0,0.0,0.0,0.0,0.0,0.0,0.0,0.0,-0.38948720693588257,-0.06282051652669907,9.814358711242676,0.0,0.0,0.0,0.0,0.0,0.0,0.0,0.0,0.0
1646244539.4084935,6844,1646244539,408082336,,0.0,0.0,0.0,0.0,0.0,0.0,0.0,0.0,0.0,0.0,0.0,0.0,0.0,0.04227856546640396,-0.1325947493314743,-0.013008194044232368,0.0,0.0,0.0,0.0,0.0,0.0,0.0,0.0,0.0,-0.5169230699539185,-0.3069230914115906,9.810769081115723,0.0,0.0,0.0,0.0,0.0,0.0,0.0,0.0,0.0
