Time,header.seq,header.stamp.secs,header.stamp.nsecs,header.frame_id,orientation.x,orientation.y,orientation.z,orientation.w,orientation_covariance_0,orientation_covariance_1,orientation_covariance_2,orientation_covariance_3,orientation_covariance_4,orientation_covariance_5,orientation_covariance_6,orientation_covariance_7,orientation_covariance_8,angular_velocity.x,angular_velocity.y,angular_velocity.z,angular_velocity_covariance_0,angular_velocity_covariance_1,angular_velocity_covariance_2,angular_velocity_covariance_3,angular_velocity_covariance_4,angular_velocity_covariance_5,angular_velocity_covariance_6,angular_velocity_covariance_7,angular_velocity_covariance_8,linear_acceleration.x,linear_acceleration.y,linear_acceleration.z,linear_acceleration_covariance_0,linear_acceleration_covariance_1,linear_acceleration_covariance_2,linear_acceleration_covariance_3,linear_acceleration_covariance_4,linear_acceleration_covariance_5,linear_acceleration_covariance_6,linear_acceleration_covariance_7,linear_acceleration_covariance_8
1646243487.4560018,6571,1646243487,455347486,,0.0,0.0,0.0,0.0,0.0,0.0,0.0,0.0,0.0,0.0,0.0,0.0,0.0,0.01777748018503189,-0.010089334100484848,0.014688681811094284,0.0,0.0,0.0,0.0,0.0,0.0,0.0,0.0,0.0,0.10230769217014313,-0.003589743748307228,9.647436141967773,0.0,0.0,0.0,0.0,0.0,0.0,0.0,0.0,0.0
1646243487.457942,6572,1646243487,457598045,,0.0,0.0,0.0,0.0,0.0,0.0,0.0,0.0,0.0,0.0,0.0,0.0,0.0,0.004994308575987816,-0.015415656380355358,-0.0034208132419735193,0.0,0.0,0.0,0.0,0.0,0.0,0.0,0.0,0.0,0.2153846174478531,0.1561538577079773,9.274102210998535,0.0,0.0,0.0,0.0,0.0,0.0,0.0,0.0,0.0
1646243487.4602313,6573,1646243487,459834194,,0.0,0.0,0.0,0.0,0.0,0.0,0.0,0.0,0.0,0.0,0.0,0.0,0.0,0.00712483748793602,0.004824366886168718,0.00723183061927557,0.0,0.0,0.0,0.0,0.0,0.0,0.0,0.0,0.0,0.26025640964508057,0.03948718309402466,9.383589744567871,0.0,0.0,0.0,0.0,0.0,0.0,0.0,0.0,0.0
1646243487.4623735,6574,1646243487,462041502,,0.0,0.0,0.0,0.0,0.0,0.0,0.0,0.0,0.0,0.0,0.0,0.0,0.0,0.00925536546856165,-0.01967671327292919,-0.025791365653276443,0.0,0.0,0.0,0.0,0.0,0.0,0.0,0.0,0.0,-0.04307692497968674,0.22256410121917725,9.64025592803955,0.0,0.0,0.0,0.0,0.0,0.0,0.0,0.0,0.0
1646243487.4645886,6575,1646243487,464227193,,0.0,0.0,0.0,0.0,0.0,0.0,0.0,0.0,0.0,0.0,0.0,0.0,0.0,-0.0003320134710520506,0.01441174652427435,0.03492870554327965,0.0,0.0,0.0,0.0,0.0,0.0,0.0,0.0,0.0,0.2153846174478531,-0.14538460969924927,9.283077239990234,0.0,0.0,0.0,0.0,0.0,0.0,0.0,0.0,0.0
1646243487.4668324,6576,1646243487,466477888,,0.0,0.0,0.0,0.0,0.0,0.0,0.0,0.0,0.0,0.0,0.0,0.0,0.0,-0.015245715156197548,0.008020159788429737,0.010427623987197876,0.0,0.0,0.0,0.0,0.0,0.0,0.0,0.0,0.0,-0.14538460969924927,0.43974360823631287,10.031538009643555,0.0,0.0,0.0,0.0,0.0,0.0,0.0,0.0,0.0
1646243487.46917,6577,1646243487,468674185,,0.0,0.0,0.0,0.0,0.0,0.0,0.0,0.0,0.0,0.0,0.0,0.0,0.0,0.02097327448427677,-0.010089334100484848,0.004036037251353264,0.0,0.0,0.0,0.0,0.0,0.0,0.0,0.0,0.0,0.29076921939849854,0.0825641080737114,9.376410484313965,0.0,0.0,0.0,0.0,0.0,0.0,0.0,0.0,0.0
1646243487.471336,6578,1646243487,470969604,,0.0,0.0,0.0,0.0,0.0,0.0,0.0,0.0,0.0,0.0,0.0,0.0,0.0,-0.023767828941345215,0.012281217612326145,0.03492870554327965,0.0,0.0,0.0,0.0,0.0,0.0,0.0,0.0,0.0,0.014358974993228912,0.38769233226776123,9.584615707397461,0.0,0.0,0.0,0.0,0.0,0.0,0.0,0.0,0.0
1646243487.4736617,6579,1646243487,473180699,,0.0,0.0,0.0,0.0,0.0,0.0,0.0,0.0,0.0,0.0,0.0,0.0,0.0,0.0220385380089283,-0.0036977482959628105,-0.017269250005483627,0.0,0.0,0.0,0.0,0.0,0.0,0.0,0.0,0.0,-0.10410256683826447,0.07179487496614456,9.68871784210205,0.0,0.0,0.0,0.0,0.0,0.0,0.0,0.0,0.0
1646243487.4756858,6580,1646243487,475371025,,0.0,0.0,0.0,0.0,0.0,0.0,0.0,0.0,0.0,0.0,0.0,0.0,0.0,-0.009919392876327038,-0.029264096170663834,-0.0012902843300253153,0.0,0.0,0.0,0.0,0.0,0.0,0.0,0.0,0.0,-0.1328205168247223,0.1651282161474228,9.765897750854492,0.0,0.0,0.0,0.0,0.0,0.0,0.0,0.0,0.0
1646243487.4779334,6581,1646243487,477565374,,0.0,0.0,0.0,0.0,0.0,0.0,0.0,0.0,0.0,0.0,0.0,0.0,0.0,0.0007332512177526951,0.01654227450489998,-0.018334513530135155,0.0,0.0,0.0,0.0,0.0,0.0,0.0,0.0,0.0,0.01974359154701233,0.2441025674343109,9.94538402557373,0.0,0.0,0.0,0.0,0.0,0.0,0.0,0.0,0.0
1646243487.4801524,6582,1646243487,479835236,,0.0,0.0,0.0,0.0,0.0,0.0,0.0,0.0,0.0,0.0,0.0,0.0,0.0,-0.005658335518091917,-0.012219863012433052,-0.00022502047067973763,0.0,0.0,0.0,0.0,0.0,0.0,0.0,0.0,0.0,0.19923077523708344,-0.08615384995937347,9.424871444702148,0.0,0.0,0.0,0.0,0.0,0.0,0.0,0.0,0.0
1646243487.4823778,6583,1646243487,482032886,,0.0,0.0,0.0,0.0,0.0,0.0,0.0,0.0,0.0,0.0,0.0,0.0,0.0,-0.0067235990427434444,0.028260184451937675,0.002970772795379162,0.0,0.0,0.0,0.0,0.0,0.0,0.0,0.0,0.0,0.21897436678409576,0.2656410336494446,9.64564037322998,0.0,0.0,0.0,0.0,0.0,0.0,0.0,0.0,0.0
1646243487.4847727,6584,1646243487,484250525,,0.0,0.0,0.0,0.0,0.0,0.0,0.0,0.0,0.0,0.0,0.0,0.0,0.0,0.001798515673726797,-0.014350391924381256,-0.017269250005483627,0.0,0.0,0.0,0.0,0.0,0.0,0.0,0.0,0.0,0.10948718339204788,0.044871795922517776,9.65461540222168,0.0,0.0,0.0,0.0,0.0,0.0,0.0,0.0,0.0
1646243487.4868026,6585,1646243487,486494821,,0.0,0.0,0.0,0.0,0.0,0.0,0.0,0.0,0.0,0.0,0.0,0.0,0.0,-0.02589835785329342,0.0026938372757285833,0.00723183061927557,0.0,0.0,0.0,0.0,0.0,0.0,0.0,0.0,0.0,0.14358974993228912,0.3625641167163849,9.721025466918945,0.0,0.0,0.0,0.0,0.0,0.0,0.0,0.0,0.0
1646243487.4890652,6586,1646243487,488788879,,0.0,0.0,0.0,0.0,0.0,0.0,0.0,0.0,0.0,0.0,0.0,0.0,0.0,-0.01844150573015213,-0.0047630127519369125,-0.027921894565224648,0.0,0.0,0.0,0.0,0.0,0.0,0.0,0.0,0.0,-0.07179487496614456,0.11307692527770996,9.808974266052246,0.0,0.0,0.0,0.0,0.0,0.0,0.0,0.0,0.0
1646243487.491445,6587,1646243487,491024988,,0.0,0.0,0.0,0.0,0.0,0.0,0.0,0.0,0.0,0.0,0.0,0.0,0.0,-0.005658335518091917,-0.028198830783367157,-0.0034208132419735193,0.0,0.0,0.0,0.0,0.0,0.0,0.0,0.0,0.0,0.18487180769443512,0.4541025757789612,9.814358711242676,0.0,0.0,0.0,0.0,0.0,0.0,0.0,0.0,0.0
1646243487.4936986,6588,1646243487,493216197,,0.0,0.0,0.0,0.0,0.0,0.0,0.0,0.0,0.0,0.0,0.0,0.0,0.0,-0.01844150573015213,0.04104335606098175,-0.009812399744987488,0.0,0.0,0.0,0.0,0.0,0.0,0.0,0.0,0.0,0.0825641080737114,0.3266666829586029,9.848461151123047,0.0,0.0,0.0,0.0,0.0,0.0,0.0,0.0,0.0
1646243487.495779,6589,1646243487,495400698,,0.0,0.0,0.0,0.0,0.0,0.0,0.0,0.0,0.0,0.0,0.0,0.0,0.0,-0.02589835785329342,0.004824366886168718,0.01255815289914608,0.0,0.0,0.0,0.0,0.0,0.0,0.0,0.0,0.0,-0.032307691872119904,0.2889743745326996,9.877179145812988,0.0,0.0,0.0,0.0,0.0,0.0,0.0,0.0,0.0
1646243487.4980767,6590,1646243487,497755613,,0.0,0.0,0.0,0.0,0.0,0.0,0.0,0.0,0.0,0.0,0.0,0.0,0.0,-0.028028886765241623,0.011215953156352043,-0.009812399744987488,0.0,0.0,0.0,0.0,0.0,0.0,0.0,0.0,0.0,-0.11307692527770996,0.5043590068817139,9.93820571899414,0.0,0.0,0.0,0.0,0.0,0.0,0.0,0.0,0.0
1646243487.5004952,6591,1646243487,500002289,,0.0,0.0,0.0,0.0,0.0,0.0,0.0,0.0,0.0,0.0,0.0,0.0,0.0,-0.03655100241303444,0.03465176746249199,0.024276060983538628,0.0,0.0,0.0,0.0,0.0,0.0,0.0,0.0,0.0,-0.07538461685180664,0.04307692497968674,10.135641098022461,0.0,0.0,0.0,0.0,0.0,0.0,0.0,0.0,0.0
1646243487.5025752,6592,1646243487,502265115,,0.0,0.0,0.0,0.0,0.0,0.0,0.0,0.0,0.0,0.0,0.0,0.0,0.0,-0.02163730002939701,0.01441174652427435,0.004036037251353264,0.0,0.0,0.0,0.0,0.0,0.0,0.0,0.0,0.0,0.08794872462749481,0.5402564406394958,9.841282844543457,0.0,0.0,0.0,0.0,0.0,0.0,0.0,0.0,0.0
1646243487.5048716,6593,1646243487,504518359,,0.0,0.0,0.0,0.0,0.0,0.0,0.0,0.0,0.0,0.0,0.0,0.0,0.0,-0.022702563554048538,0.020803332328796387,-0.0076818703673779964,0.0,0.0,0.0,0.0,0.0,0.0,0.0,0.0,0.0,0.17589744925498962,0.2746153771877289,10.071025848388672,0.0,0.0,0.0,0.0,0.0,0.0,0.0,0.0,0.0
1646243487.5070171,6594,1646243487,506719390,,0.0,0.0,0.0,0.0,0.0,0.0,0.0,0.0,0.0,0.0,0.0,0.0,0.0,-0.04613837972283363,-0.0036977482959628105,-0.00022502047067973763,0.0,0.0,0.0,0.0,0.0,0.0,0.0,0.0,0.0,0.30512821674346924,-0.05564102530479431,9.652820587158203,0.0,0.0,0.0,0.0,0.0,0.0,0.0,0.0,0.0
1646243487.5093155,6595,1646243487,508918389,,0.0,0.0,0.0,0.0,0.0,0.0,0.0,0.0,0.0,0.0,0.0,0.0,0.0,-0.031224681064486504,-0.005828278139233589,0.017884474247694016,0.0,0.0,0.0,0.0,0.0,0.0,0.0,0.0,0.0,0.18487180769443512,0.2387179583311081,10.09794807434082,0.0,0.0,0.0,0.0,0.0,0.0,0.0,0.0,0.0
1646243487.5115507,6596,1646243487,511130420,,0.0,0.0,0.0,0.0,0.0,0.0,0.0,0.0,0.0,0.0,0.0,0.0,0.0,-0.03335520997643471,0.0016285729361698031,-0.00022502047067973763,0.0,0.0,0.0,0.0,0.0,0.0,0.0,0.0,0.0,-0.2028205245733261,0.1328205168247223,9.74256420135498,0.0,0.0,0.0,0.0,0.0,0.0,0.0,0.0,0.0
1646243487.5136652,6597,1646243487,513341277,,0.0,0.0,0.0,0.0,0.0,0.0,0.0,0.0,0.0,0.0,0.0,0.0,0.0,-0.026963621377944946,-0.013285127468407154,-0.008747135289013386,0.0,0.0,0.0,0.0,0.0,0.0,0.0,0.0,0.0,0.1148717999458313,0.5707692503929138,10.205641746520996,0.0,0.0,0.0,0.0,0.0,0.0,0.0,0.0,0.0
1646243487.5160258,6598,1646243487,515633979,,0.0,0.0,0.0,0.0,0.0,0.0,0.0,0.0,0.0,0.0,0.0,0.0,0.0,-0.026963621377944946,-0.0036977482959628105,0.008297095075249672,0.0,0.0,0.0,0.0,0.0,0.0,0.0,0.0,0.0,0.03769230842590332,0.05025641247630119,10.19487190246582,0.0,0.0,0.0,0.0,0.0,0.0,0.0,0.0,0.0
1646243487.5183327,6599,1646243487,517924016,,0.0,0.0,0.0,0.0,0.0,0.0,0.0,0.0,0.0,0.0,0.0,0.0,0.0,-0.024833092465996742,-0.0026324838399887085,0.002970772795379162,0.0,0.0,0.0,0.0,0.0,0.0,0.0,0.0,0.0,-0.07179487496614456,0.4002564251422882,10.228974342346191,0.0,0.0,0.0,0.0,0.0,0.0,0.0,0.0,0.0
1646243487.5204835,6600,1646243487,520113190,,0.0,0.0,0.0,0.0,0.0,0.0,0.0,0.0,0.0,0.0,0.0,0.0,0.0,-0.03335520997643471,0.008020159788429737,0.0019055086886510253,0.0,0.0,0.0,0.0,0.0,0.0,0.0,0.0,0.0,0.21717949211597443,-0.12743589282035828,9.722820281982422,0.0,0.0,0.0,0.0,0.0,0.0,0.0,0.0,0.0
1646243487.5225873,6601,1646243487,522340607,,0.0,0.0,0.0,0.0,0.0,0.0,0.0,0.0,0.0,0.0,0.0,0.0,0.0,-0.02909415028989315,0.008020159788429737,0.025341326370835304,0.0,0.0,0.0,0.0,0.0,0.0,0.0,0.0,0.0,-0.007179487496614456,-0.11128205060958862,9.730000495910645,0.0,0.0,0.0,0.0,0.0,0.0,0.0,0.0,0.0
1646243487.5247886,6602,1646243487,524530473,,0.0,0.0,0.0,0.0,0.0,0.0,0.0,0.0,0.0,0.0,0.0,0.0,0.0,-0.016310978680849075,-0.0026324838399887085,-0.0012902843300253153,0.0,0.0,0.0,0.0,0.0,0.0,0.0,0.0,0.0,0.16153846681118011,0.1651282161474228,9.952564239501953,0.0,0.0,0.0,0.0,0.0,0.0,0.0,0.0,0.0
1646243487.5283563,6603,1646243487,526742059,,0.0,0.0,0.0,0.0,0.0,0.0,0.0,0.0,0.0,0.0,0.0,0.0,0.0,-0.017376242205500603,-0.0047630127519369125,0.01575394533574581,0.0,0.0,0.0,0.0,0.0,0.0,0.0,0.0,0.0,0.02153846248984337,0.003589743748307228,9.791025161743164,0.0,0.0,0.0,0.0,0.0,0.0,0.0,0.0,0.0
1646243487.5293224,6604,1646243487,529037221,,0.0,0.0,0.0,0.0,0.0,0.0,0.0,0.0,0.0,0.0,0.0,0.0,0.0,-0.017376242205500603,-0.012219863012433052,-0.013008194044232368,0.0,0.0,0.0,0.0,0.0,0.0,0.0,0.0,0.0,0.18666666746139526,0.2997435927391052,10.022564888000488,0.0,0.0,0.0,0.0,0.0,0.0,0.0,0.0,0.0
1646243487.531804,6605,1646243487,531271008,,0.0,0.0,0.0,0.0,0.0,0.0,0.0,0.0,0.0,0.0,0.0,0.0,0.0,-0.01098465733230114,0.017607539892196655,-0.0012902843300253153,0.0,0.0,0.0,0.0,0.0,0.0,0.0,0.0,0.0,-0.07000000029802322,0.032307691872119904,9.963333129882812,0.0,0.0,0.0,0.0,0.0,0.0,0.0,0.0,0.0
1646243487.5339386,6606,1646243487,533503759,,0.0,0.0,0.0,0.0,0.0,0.0,0.0,0.0,0.0,0.0,0.0,0.0,0.0,-0.013115186244249344,-0.0036977482959628105,0.005101301707327366,0.0,0.0,0.0,0.0,0.0,0.0,0.0,0.0,0.0,0.2028205245733261,0.06102564185857773,9.692307472229004,0.0,0.0,0.0,0.0,0.0,0.0,0.0,0.0,0.0
1646243487.5363011,6607,1646243487,535915767,,0.0,0.0,0.0,0.0,0.0,0.0,0.0,0.0,0.0,0.0,0.0,0.0,0.0,-0.014180450700223446,0.008020159788429737,0.010427623987197876,0.0,0.0,0.0,0.0,0.0,0.0,0.0,0.0,0.0,-0.00897435937076807,-0.05205128341913223,9.728204727172852,0.0,0.0,0.0,0.0,0.0,0.0,0.0,0.0,0.0
1646243487.538518,6608,1646243487,538125352,,0.0,0.0,0.0,0.0,0.0,0.0,0.0,0.0,0.0,0.0,0.0,0.0,0.0,-0.009919392876327038,-0.0015672193840146065,-0.009812399744987488,0.0,0.0,0.0,0.0,0.0,0.0,0.0,0.0,0.0,-0.07717949151992798,0.3715384900569916,10.040512084960938,0.0,0.0,0.0,0.0,0.0,0.0,0.0,0.0,0.0
1646243487.5407283,6609,1646243487,540350890,,0.0,0.0,0.0,0.0,0.0,0.0,0.0,0.0,0.0,0.0,0.0,0.0,0.0,-0.005658335518091917,0.004824366886168718,0.01255815289914608,0.0,0.0,0.0,0.0,0.0,0.0,0.0,0.0,0.0,-0.10051282495260239,0.31051284074783325,10.196666717529297,0.0,0.0,0.0,0.0,0.0,0.0,0.0,0.0,0.0
1646243487.5430627,6610,1646243487,542589346,,0.0,0.0,0.0,0.0,0.0,0.0,0.0,0.0,0.0,0.0,0.0,0.0,0.0,-0.013115186244249344,0.008020159788429737,0.00723183061927557,0.0,0.0,0.0,0.0,0.0,0.0,0.0,0.0,0.0,-0.12564103305339813,-0.08974359184503555,9.767691612243652,0.0,0.0,0.0,0.0,0.0,0.0,0.0,0.0,0.0
1646243487.545213,6611,1646243487,544772862,,0.0,0.0,0.0,0.0,0.0,0.0,0.0,0.0,0.0,0.0,0.0,0.0,0.0,0.012451158836483955,0.013346482068300247,0.028537116944789886,0.0,0.0,0.0,0.0,0.0,0.0,0.0,0.0,0.0,0.1382051259279251,0.20102564990520477,9.997435569763184,0.0,0.0,0.0,0.0,0.0,0.0,0.0,0.0,0.0
1646243487.547403,6612,1646243487,547056614,,0.0,0.0,0.0,0.0,0.0,0.0,0.0,0.0,0.0,0.0,0.0,0.0,0.0,-0.03335520997643471,-0.01967671327292919,-0.004486078396439552,0.0,0.0,0.0,0.0,0.0,0.0,0.0,0.0,0.0,0.2656410336494446,-0.2441025674343109,9.19333267211914,0.0,0.0,0.0,0.0,0.0,0.0,0.0,0.0,0.0
1646243487.5495682,6613,1646243487,549245775,,0.0,0.0,0.0,0.0,0.0,0.0,0.0,0.0,0.0,0.0,0.0,0.0,0.0,0.004994308575987816,-0.03885146975517273,0.01255815289914608,0.0,0.0,0.0,0.0,0.0,0.0,0.0,0.0,0.0,0.2530769407749176,-0.1705128252506256,9.405128479003906,0.0,0.0,0.0,0.0,0.0,0.0,0.0,0.0,0.0
1646243487.5517662,6614,1646243487,551486699,,0.0,0.0,0.0,0.0,0.0,0.0,0.0,0.0,0.0,0.0,0.0,0.0,0.0,-0.023767828941345215,-0.013285127468407154,-0.015138722956180573,0.0,0.0,0.0,0.0,0.0,0.0,0.0,0.0,0.0,-0.010769231244921684,-0.08076923340559006,9.518204689025879,0.0,0.0,0.0,0.0,0.0,0.0,0.0,0.0,0.0
1646243487.5540092,6615,1646243487,553725378,,0.0,0.0,0.0,0.0,0.0,0.0,0.0,0.0,0.0,0.0,0.0,0.0,0.0,-0.01098465733230114,0.010150688700377941,-0.013008194044232368,0.0,0.0,0.0,0.0,0.0,0.0,0.0,0.0,0.0,-0.05384615436196327,0.11666666716337204,9.762307167053223,0.0,0.0,0.0,0.0,0.0,0.0,0.0,0.0,0.0
1646243487.5561965,6616,1646243487,555923203,,0.0,0.0,0.0,0.0,0.0,0.0,0.0,0.0,0.0,0.0,0.0,0.0,0.0,-0.023767828941345215,-0.0026324838399887085,0.010427623987197876,0.0,0.0,0.0,0.0,0.0,0.0,0.0,0.0,0.0,0.2853846251964569,0.05025641247630119,9.390769004821777,0.0,0.0,0.0,0.0,0.0,0.0,0.0,0.0,0.0
1646243487.5585241,6617,1646243487,558133042,,0.0,0.0,0.0,0.0,0.0,0.0,0.0,0.0,0.0,0.0,0.0,0.0,0.0,-0.02909415028989315,0.010150688700377941,0.022145532071590424,0.0,0.0,0.0,0.0,0.0,0.0,0.0,0.0,0.0,0.11846154183149338,-0.34282052516937256,9.40871810913086,0.0,0.0,0.0,0.0,0.0,0.0,0.0,0.0,0.0
1646243487.560769,6618,1646243487,560349725,,0.0,0.0,0.0,0.0,0.0,0.0,0.0,0.0,0.0,0.0,0.0,0.0,0.0,-0.0067235990427434444,0.0005633095279335976,0.011492888443171978,0.0,0.0,0.0,0.0,0.0,0.0,0.0,0.0,0.0,0.032307691872119904,0.14000000059604645,9.638461112976074,0.0,0.0,0.0,0.0,0.0,0.0,0.0,0.0,0.0
1646243487.5629776,6619,1646243487,562601010,,0.0,0.0,0.0,0.0,0.0,0.0,0.0,0.0,0.0,0.0,0.0,0.0,0.0,-0.02589835785329342,-0.013285127468407154,-0.0034208132419735193,0.0,0.0,0.0,0.0,0.0,0.0,0.0,0.0,0.0,0.06820512562990189,-0.35538461804389954,9.412307739257812,0.0,0.0,0.0,0.0,0.0,0.0,0.0,0.0,0.0
1646243487.5652328,6620,1646243487,564871196,,0.0,0.0,0.0,0.0,0.0,0.0,0.0,0.0,0.0,0.0,0.0,0.0,0.0,-0.0067235990427434444,0.018672803416848183,-0.00022502047067973763,0.0,0.0,0.0,0.0,0.0,0.0,0.0,0.0,0.0,-0.1471794843673706,0.22794872522354126,9.9005126953125,0.0,0.0,0.0,0.0,0.0,0.0,0.0,0.0,0.0
1646243487.5673885,6621,1646243487,567058654,,0.0,0.0,0.0,0.0,0.0,0.0,0.0,0.0,0.0,0.0,0.0,0.0,0.0,0.018842745572328568,0.009085424244403839,0.0008402442326769233,0.0,0.0,0.0,0.0,0.0,0.0,0.0,0.0,0.0,0.014358974993228912,-0.3176923394203186,9.281281471252441,0.0,0.0,0.0,0.0,0.0,0.0,0.0,0.0,0.0
1646243487.5702984,6622,1646243487,569250489,,0.0,0.0,0.0,0.0,0.0,0.0,0.0,0.0,0.0,0.0,0.0,0.0,0.0,-0.019506771117448807,-0.005828278139233589,0.0008402442326769233,0.0,0.0,0.0,0.0,0.0,0.0,0.0,0.0,0.0,0.15435898303985596,0.09153846651315689,9.55589771270752,0.0,0.0,0.0,0.0,0.0,0.0,0.0,0.0,0.0
1646243487.571702,6623,1646243487,571450215,,0.0,0.0,0.0,0.0,0.0,0.0,0.0,0.0,0.0,0.0,0.0,0.0,0.0,-0.0024625419173389673,0.01654227450489998,0.0008402442326769233,0.0,0.0,0.0,0.0,0.0,0.0,0.0,0.0,0.0,0.2028205245733261,0.010769231244921684,9.40333366394043,0.0,0.0,0.0,0.0,0.0,0.0,0.0,0.0,0.0
1646243487.574128,6624,1646243487,573664715,,0.0,0.0,0.0,0.0,0.0,0.0,0.0,0.0,0.0,0.0,0.0,0.0,0.0,-0.0003320134710520506,0.012281217612326145,0.021080268546938896,0.0,0.0,0.0,0.0,0.0,0.0,0.0,0.0,0.0,0.1148717999458313,-0.4774359166622162,9.40333366394043,0.0,0.0,0.0,0.0,0.0,0.0,0.0,0.0,0.0
1646243487.5763245,6625,1646243487,575861700,,0.0,0.0,0.0,0.0,0.0,0.0,0.0,0.0,0.0,0.0,0.0,0.0,0.0,-0.0067235990427434444,0.006954895332455635,0.002970772795379162,0.0,0.0,0.0,0.0,0.0,0.0,0.0,0.0,0.0,-0.005384615622460842,-0.03589743748307228,9.695897102355957,0.0,0.0,0.0,0.0,0.0,0.0,0.0,0.0,0.0
1646243487.5785046,6626,1646243487,578107985,,0.0,0.0,0.0,0.0,0.0,0.0,0.0,0.0,0.0,0.0,0.0,0.0,0.0,0.030560653656721115,0.01441174652427435,-0.0162039864808321,0.0,0.0,0.0,0.0,0.0,0.0,0.0,0.0,0.0,-0.00897435937076807,-0.3123077154159546,9.647436141967773,0.0,0.0,0.0,0.0,0.0,0.0,0.0,0.0,0.0
1646243487.580731,6627,1646243487,580339885,,0.0,0.0,0.0,0.0,0.0,0.0,0.0,0.0,0.0,0.0,0.0,0.0,0.0,0.00712483748793602,0.012281217612326145,0.01681920886039734,0.0,0.0,0.0,0.0,0.0,0.0,0.0,0.0,0.0,0.007179487496614456,-0.38948720693588257,9.563076972961426,0.0,0.0,0.0,0.0,0.0,0.0,0.0,0.0,0.0
1646243487.5829146,6628,1646243487,582527507,,0.0,0.0,0.0,0.0,0.0,0.0,0.0,0.0,0.0,0.0,0.0,0.0,0.0,0.008190101943910122,-0.0026324838399887085,-0.00022502047067973763,0.0,0.0,0.0,0.0,0.0,0.0,0.0,0.0,0.0,-0.18666666746139526,0.1561538577079773,10.004615783691406,0.0,0.0,0.0,0.0,0.0,0.0,0.0,0.0,0.0
1646243487.585013,6629,1646243487,584699917,,0.0,0.0,0.0,0.0,0.0,0.0,0.0,0.0,0.0,0.0,0.0,0.0,0.0,-0.0067235990427434444,0.0026938372757285833,-0.006616605911403894,0.0,0.0,0.0,0.0,0.0,0.0,0.0,0.0,0.0,-0.2387179583311081,-0.35538461804389954,9.800000190734863,0.0,0.0,0.0,0.0,0.0,0.0,0.0,0.0,0.0
1646243487.587224,6630,1646243487,586868964,,0.0,0.0,0.0,0.0,0.0,0.0,0.0,0.0,0.0,0.0,0.0,0.0,0.0,0.011385894380509853,0.012281217612326145,0.005101301707327366,0.0,0.0,0.0,0.0,0.0,0.0,0.0,0.0,0.0,-0.07538461685180664,0.005384615622460842,9.780256271362305,0.0,0.0,0.0,0.0,0.0,0.0,0.0,0.0,0.0
1646243487.5895424,6631,1646243487,589040970,,0.0,0.0,0.0,0.0,0.0,0.0,0.0,0.0,0.0,0.0,0.0,0.0,0.0,0.02523433417081833,-0.010089334100484848,0.010427623987197876,0.0,0.0,0.0,0.0,0.0,0.0,0.0,0.0,0.0,0.12205128371715546,-0.5851281881332397,9.383589744567871,0.0,0.0,0.0,0.0,0.0,0.0,0.0,0.0,0.0
1646243487.5915444,6632,1646243487,591256505,,0.0,0.0,0.0,0.0,0.0,0.0,0.0,0.0,0.0,0.0,0.0,0.0,0.0,-0.0003320134710520506,0.00588963134214282,-0.011942928656935692,0.0,0.0,0.0,0.0,0.0,0.0,0.0,0.0,0.0,-0.18128205835819244,0.048461541533470154,10.160768508911133,0.0,0.0,0.0,0.0,0.0,0.0,0.0,0.0,0.0
1646243487.5939066,6633,1646243487,593475046,,0.0,0.0,0.0,0.0,0.0,0.0,0.0,0.0,0.0,0.0,0.0,0.0,0.0,0.018842745572328568,0.017607539892196655,-0.011942928656935692,0.0,0.0,0.0,0.0,0.0,0.0,0.0,0.0,0.0,0.1561538577079773,-0.3033333420753479,9.722820281982422,0.0,0.0,0.0,0.0,0.0,0.0,0.0,0.0,0.0
1646243487.5961266,6634,1646243487,595717830,,0.0,0.0,0.0,0.0,0.0,0.0,0.0,0.0,0.0,0.0,0.0,0.0,0.0,0.026299597695469856,-0.0047630127519369125,0.0019055086886510253,0.0,0.0,0.0,0.0,0.0,0.0,0.0,0.0,0.0,-0.03410256281495094,-0.3087179660797119,9.618718147277832,0.0,0.0,0.0,0.0,0.0,0.0,0.0,0.0,0.0
1646243487.5983949,6635,1646243487,597926755,,0.0,0.0,0.0,0.0,0.0,0.0,0.0,0.0,0.0,0.0,0.0,0.0,0.0,0.00712483748793602,0.009085424244403839,-0.0012902843300253153,0.0,0.0,0.0,0.0,0.0,0.0,0.0,0.0,0.0,0.2153846174478531,-0.048461541533470154,9.859230041503906,0.0,0.0,0.0,0.0,0.0,0.0,0.0,0.0,0.0
1646243487.6004672,6636,1646243487,600126125,,0.0,0.0,0.0,0.0,0.0,0.0,0.0,0.0,0.0,0.0,0.0,0.0,0.0,0.02523433417081833,-0.010089334100484848,-0.008747135289013386,0.0,0.0,0.0,0.0,0.0,0.0,0.0,0.0,0.0,0.028717949986457825,-0.3356410562992096,9.695897102355957,0.0,0.0,0.0,0.0,0.0,0.0,0.0,0.0,0.0
1646243487.6026905,6637,1646243487,602332008,,0.0,0.0,0.0,0.0,0.0,0.0,0.0,0.0,0.0,0.0,0.0,0.0,0.0,0.0103206317871809,0.013346482068300247,-0.00022502047067973763,0.0,0.0,0.0,0.0,0.0,0.0,0.0,0.0,0.0,0.010769231244921684,0.10051282495260239,9.90410327911377,0.0,0.0,0.0,0.0,0.0,0.0,0.0,0.0,0.0
1646243487.6048276,6638,1646243487,604537416,,0.0,0.0,0.0,0.0,0.0,0.0,0.0,0.0,0.0,0.0,0.0,0.0,0.0,0.0497354120016098,0.0005633095279335976,-0.0162039864808321,0.0,0.0,0.0,0.0,0.0,0.0,0.0,0.0,0.0,-0.03769230842590332,-0.3176923394203186,10.010000228881836,0.0,0.0,0.0,0.0,0.0,0.0,0.0,0.0,0.0
1646243487.607124,6639,1646243487,606752522,,0.0,0.0,0.0,0.0,0.0,0.0,0.0,0.0,0.0,0.0,0.0,0.0,0.0,0.03482171148061752,0.021868597716093063,-0.0012902843300253153,0.0,0.0,0.0,0.0,0.0,0.0,0.0,0.0,0.0,-0.23153845965862274,0.27282050251960754,10.44974422454834,0.0,0.0,0.0,0.0,0.0,0.0,0.0,0.0,0.0
1646243487.6094894,6640,1646243487,609057247,,0.0,0.0,0.0,0.0,0.0,0.0,0.0,0.0,0.0,0.0,0.0,0.0,0.0,0.02097327448427677,-0.014350391924381256,0.006166566163301468,0.0,0.0,0.0,0.0,0.0,0.0,0.0,0.0,0.0,0.09153846651315689,-0.27282050251960754,9.760512351989746,0.0,0.0,0.0,0.0,0.0,0.0,0.0,0.0,0.0
1646243487.612475,6641,1646243487,611295385,,0.0,0.0,0.0,0.0,0.0,0.0,0.0,0.0,0.0,0.0,0.0,0.0,0.0,0.03482171148061752,0.0026938372757285833,0.002970772795379162,0.0,0.0,0.0,0.0,0.0,0.0,0.0,0.0,0.0,0.01794871874153614,-0.01794871874153614,10.017179489135742,0.0,0.0,0.0,0.0,0.0,0.0,0.0,0.0,0.0
1646243487.6149116,6642,1646243487,613508322,,0.0,0.0,0.0,0.0,0.0,0.0,0.0,0.0,0.0,0.0,0.0,0.0,0.0,0.03482171148061752,0.01441174652427435,-0.009812399744987488,0.0,0.0,0.0,0.0,0.0,0.0,0.0,0.0,0.0,0.032307691872119904,-0.012564103119075298,9.75333309173584,0.0,0.0,0.0,0.0,0.0,0.0,0.0,0.0,0.0
1646243487.6160505,6643,1646243487,615723727,,0.0,0.0,0.0,0.0,0.0,0.0,0.0,0.0,0.0,0.0,0.0,0.0,0.0,0.0220385380089283,-0.014350391924381256,-0.01087766420096159,0.0,0.0,0.0,0.0,0.0,0.0,0.0,0.0,0.0,0.14538460969924927,-0.3087179660797119,9.808974266052246,0.0,0.0,0.0,0.0,0.0,0.0,0.0,0.0,0.0
1646243487.6182542,6644,1646243487,617933416,,0.0,0.0,0.0,0.0,0.0,0.0,0.0,0.0,0.0,0.0,0.0,0.0,0.0,0.027364861220121384,-0.014350391924381256,-0.004486078396439552,0.0,0.0,0.0,0.0,0.0,0.0,0.0,0.0,0.0,0.07717949151992798,0.08435897529125214,10.088973999023438,0.0,0.0,0.0,0.0,0.0,0.0,0.0,0.0,0.0
1646243487.6204412,6645,1646243487,620136224,,0.0,0.0,0.0,0.0,0.0,0.0,0.0,0.0,0.0,0.0,0.0,0.0,0.0,0.016712216660380363,0.0037591024301946163,0.009362359531223774,0.0,0.0,0.0,0.0,0.0,0.0,0.0,0.0,0.0,0.05025641247630119,-0.2800000011920929,9.679743766784668,0.0,0.0,0.0,0.0,0.0,0.0,0.0,0.0,0.0
1646243487.6227088,6646,1646243487,622315692,,0.0,0.0,0.0,0.0,0.0,0.0,0.0,0.0,0.0,0.0,0.0,0.0,0.0,-0.0003320134710520506,-0.014350391924381256,-0.02046504244208336,0.0,0.0,0.0,0.0,0.0,0.0,0.0,0.0,0.0,-0.19384616613388062,0.32846155762672424,10.137436866760254,0.0,0.0,0.0,0.0,0.0,0.0,0.0,0.0,0.0
1646243487.6247754,6647,1646243487,624497879,,0.0,0.0,0.0,0.0,0.0,0.0,0.0,0.0,0.0,0.0,0.0,0.0,0.0,0.019908009096980095,0.0026938372757285833,0.01255815289914608,0.0,0.0,0.0,0.0,0.0,0.0,0.0,0.0,0.0,0.2566666603088379,-0.15794873237609863,9.64923095703125,0.0,0.0,0.0,0.0,0.0,0.0,0.0,0.0,0.0
1646243487.627063,6648,1646243487,626683025,,0.0,0.0,0.0,0.0,0.0,0.0,0.0,0.0,0.0,0.0,0.0,0.0,0.0,0.011385894380509853,-0.01115459855645895,0.018949739634990692,0.0,0.0,0.0,0.0,0.0,0.0,0.0,0.0,0.0,0.03948718309402466,0.13102564215660095,9.89512825012207,0.0,0.0,0.0,0.0,0.0,0.0,0.0,0.0,0.0
1646243487.629122,6649,1646243487,628870795,,0.0,0.0,0.0,0.0,0.0,0.0,0.0,0.0,0.0,0.0,0.0,0.0,0.0,0.00925536546856165,-0.006893542595207691,0.0019055086886510253,0.0,0.0,0.0,0.0,0.0,0.0,0.0,0.0,0.0,-0.20820513367652893,0.01794871874153614,9.810769081115723,0.0,0.0,0.0,0.0,0.0,0.0,0.0,0.0,0.0
1646243487.63147,6650,1646243487,631099176,,0.0,0.0,0.0,0.0,0.0,0.0,0.0,0.0,0.0,0.0,0.0,0.0,0.0,0.027364861220121384,-0.005828278139233589,0.009362359531223774,0.0,0.0,0.0,0.0,0.0,0.0,0.0,0.0,0.0,-0.06461538374423981,0.31948718428611755,9.990256309509277,0.0,0.0,0.0,0.0,0.0,0.0,0.0,0.0,0.0
1646243487.6337035,6651,1646243487,633321267,,0.0,0.0,0.0,0.0,0.0,0.0,0.0,0.0,0.0,0.0,0.0,0.0,0.0,0.001798515673726797,-0.010089334100484848,0.011492888443171978,0.0,0.0,0.0,0.0,0.0,0.0,0.0,0.0,0.0,0.18487180769443512,-0.28358975052833557,9.577435493469238,0.0,0.0,0.0,0.0,0.0,0.0,0.0,0.0,0.0
1646243487.6359594,6652,1646243487,635540231,,0.0,0.0,0.0,0.0,0.0,0.0,0.0,0.0,0.0,0.0,0.0,0.0,0.0,0.001798515673726797,-0.0005019548698328435,0.013623417355120182,0.0,0.0,0.0,0.0,0.0,0.0,0.0,0.0,0.0,0.09512820839881897,-0.16153846681118011,9.64384651184082,0.0,0.0,0.0,0.0,0.0,0.0,0.0,0.0,0.0
1646243487.6383767,6653,1646243487,637781763,,0.0,0.0,0.0,0.0,0.0,0.0,0.0,0.0,0.0,0.0,0.0,0.0,0.0,0.0028637798968702555,-0.013285127468407154,0.0019055086886510253,0.0,0.0,0.0,0.0,0.0,0.0,0.0,0.0,0.0,0.22256410121917725,0.11666666716337204,9.627692222595215,0.0,0.0,0.0,0.0,0.0,0.0,0.0,0.0,0.0
1646243487.6404264,6654,1646243487,640005143,,0.0,0.0,0.0,0.0,0.0,0.0,0.0,0.0,0.0,0.0,0.0,0.0,0.0,0.00925536546856165,-0.01115459855645895,0.01575394533574581,0.0,0.0,0.0,0.0,0.0,0.0,0.0,0.0,0.0,0.03589743748307228,-0.09871795028448105,9.609743118286133,0.0,0.0,0.0,0.0,0.0,0.0,0.0,0.0,0.0
1646243487.6426704,6655,1646243487,642282514,,0.0,0.0,0.0,0.0,0.0,0.0,0.0,0.0,0.0,0.0,0.0,0.0,0.0,0.00712483748793602,-0.0036977482959628105,0.013623417355120182,0.0,0.0,0.0,0.0,0.0,0.0,0.0,0.0,0.0,0.17769230902194977,0.15256410837173462,9.584615707397461,0.0,0.0,0.0,0.0,0.0,0.0,0.0,0.0,0.0
1646243487.644842,6656,1646243487,644459848,,0.0,0.0,0.0,0.0,0.0,0.0,0.0,0.0,0.0,0.0,0.0,0.0,0.0,0.019908009096980095,-0.0026324838399887085,0.006166566163301468,0.0,0.0,0.0,0.0,0.0,0.0,0.0,0.0,0.0,-0.19384616613388062,0.07179487496614456,9.724615097045898,0.0,0.0,0.0,0.0,0.0,0.0,0.0,0.0,0.0
1646243487.6470168,6657,1646243487,646630083,,0.0,0.0,0.0,0.0,0.0,0.0,0.0,0.0,0.0,0.0,0.0,0.0,0.0,-0.0067235990427434444,-0.017546184360980988,0.014688681811094284,0.0,0.0,0.0,0.0,0.0,0.0,0.0,0.0,0.0,0.028717949986457825,0.36974361538887024,9.744359016418457,0.0,0.0,0.0,0.0,0.0,0.0,0.0,0.0,0.0
1646243487.6491814,6658,1646243487,648853347,,0.0,0.0,0.0,0.0,0.0,0.0,0.0,0.0,0.0,0.0,0.0,0.0,0.0,-0.0013972773449495435,-0.0005019548698328435,0.002970772795379162,0.0,0.0,0.0,0.0,0.0,0.0,0.0,0.0,0.0,0.10410256683826447,0.20461538434028625,9.618718147277832,0.0,0.0,0.0,0.0,0.0,0.0,0.0,0.0,0.0
1646243487.651393,6659,1646243487,651107653,,0.0,0.0,0.0,0.0,0.0,0.0,0.0,0.0,0.0,0.0,0.0,0.0,0.0,0.0220385380089283,-0.0047630127519369125,0.0019055086886510253,0.0,0.0,0.0,0.0,0.0,0.0,0.0,0.0,0.0,-0.04307692497968674,-0.026923077180981636,9.69410228729248,0.0,0.0,0.0,0.0,0.0,0.0,0.0,0.0,0.0
1646243487.6543448,6660,1646243487,653296988,,0.0,0.0,0.0,0.0,0.0,0.0,0.0,0.0,0.0,0.0,0.0,0.0,0.0,0.02097327448427677,0.0026938372757285833,0.010427623987197876,0.0,0.0,0.0,0.0,0.0,0.0,0.0,0.0,0.0,-0.07897436618804932,0.4325641095638275,9.821538925170898,0.0,0.0,0.0,0.0,0.0,0.0,0.0,0.0,0.0
1646243487.6558123,6661,1646243487,655519035,,0.0,0.0,0.0,0.0,0.0,0.0,0.0,0.0,0.0,0.0,0.0,0.0,0.0,0.011385894380509853,-0.01115459855645895,0.0019055086886510253,0.0,0.0,0.0,0.0,0.0,0.0,0.0,0.0,0.0,0.06641025841236115,-0.10769230872392654,9.728204727172852,0.0,0.0,0.0,0.0,0.0,0.0,0.0,0.0,0.0
1646243487.658159,6662,1646243487,657726867,,0.0,0.0,0.0,0.0,0.0,0.0,0.0,0.0,0.0,0.0,0.0,0.0,0.0,-0.004593071062117815,-0.020741978660225868,-0.009812399744987488,0.0,0.0,0.0,0.0,0.0,0.0,0.0,0.0,0.0,0.10769230872392654,0.3446153998374939,9.521795272827148,0.0,0.0,0.0,0.0,0.0,0.0,0.0,0.0,0.0
1646243487.6602056,6663,1646243487,659958717,,0.0,0.0,0.0,0.0,0.0,0.0,0.0,0.0,0.0,0.0,0.0,0.0,0.0,0.008190101943910122,-0.009024071507155895,-0.027921894565224648,0.0,0.0,0.0,0.0,0.0,0.0,0.0,0.0,0.0,0.3033333420753479,-0.30153846740722656,9.19692325592041,0.0,0.0,0.0,0.0,0.0,0.0,0.0,0.0,0.0
1646243487.6627076,6664,1646243487,662176798,,0.0,0.0,0.0,0.0,0.0,0.0,0.0,0.0,0.0,0.0,0.0,0.0,0.0,-0.0035278063733130693,0.00588963134214282,0.00723183061927557,0.0,0.0,0.0,0.0,0.0,0.0,0.0,0.0,0.0,0.13102564215660095,0.3715384900569916,9.871794700622559,0.0,0.0,0.0,0.0,0.0,0.0,0.0,0.0,0.0
1646243487.66489,6665,1646243487,664373662,,0.0,0.0,0.0,0.0,0.0,0.0,0.0,0.0,0.0,0.0,0.0,0.0,0.0,-0.004593071062117815,-0.005828278139233589,-0.015138722956180573,0.0,0.0,0.0,0.0,0.0,0.0,0.0,0.0,0.0,0.21897436678409576,0.19564102590084076,9.69410228729248,0.0,0.0,0.0,0.0,0.0,0.0,0.0,0.0,0.0
1646243487.667041,6666,1646243487,666630852,,0.0,0.0,0.0,0.0,0.0,0.0,0.0,0.0,0.0,0.0,0.0,0.0,0.0,0.012451158836483955,-0.006893542595207691,0.02001500315964222,0.0,0.0,0.0,0.0,0.0,0.0,0.0,0.0,0.0,-0.030512820929288864,-0.04307692497968674,9.751538276672363,0.0,0.0,0.0,0.0,0.0,0.0,0.0,0.0,0.0
1646243487.6692991,6667,1646243487,668868564,,0.0,0.0,0.0,0.0,0.0,0.0,0.0,0.0,0.0,0.0,0.0,0.0,0.0,-0.020572034642100334,0.00588963134214282,-0.027921894565224648,0.0,0.0,0.0,0.0,0.0,0.0,0.0,0.0,0.0,0.005384615622460842,0.37871795892715454,9.767691612243652,0.0,0.0,0.0,0.0,0.0,0.0,0.0,0.0,0.0
1646243487.6715372,6668,1646243487,671050135,,0.0,0.0,0.0,0.0,0.0,0.0,0.0,0.0,0.0,0.0,0.0,0.0,0.0,0.006059573031961918,0.015477010980248451,0.00723183061927557,0.0,0.0,0.0,0.0,0.0,0.0,0.0,0.0,0.0,0.2028205245733261,-0.07717949151992798,9.672564506530762,0.0,0.0,0.0,0.0,0.0,0.0,0.0,0.0,0.0
1646243487.6736124,6669,1646243487,673231122,,0.0,0.0,0.0,0.0,0.0,0.0,0.0,0.0,0.0,0.0,0.0,0.0,0.0,-0.013115186244249344,0.008020159788429737,-0.0162039864808321,0.0,0.0,0.0,0.0,0.0,0.0,0.0,0.0,0.0,-0.06461538374423981,0.3392307758331299,10.040512084960938,0.0,0.0,0.0,0.0,0.0,0.0,0.0,0.0,0.0
1646243487.6756332,6670,1646243487,675420426,,0.0,0.0,0.0,0.0,0.0,0.0,0.0,0.0,0.0,0.0,0.0,0.0,0.0,-0.01098465733230114,0.0037591024301946163,-0.0034208132419735193,0.0,0.0,0.0,0.0,0.0,0.0,0.0,0.0,0.0,0.4235897660255432,-0.12025640904903412,9.231025695800781,0.0,0.0,0.0,0.0,0.0,0.0,0.0,0.0,0.0
1646243487.6781137,6671,1646243487,677631143,,0.0,0.0,0.0,0.0,0.0,0.0,0.0,0.0,0.0,0.0,0.0,0.0,0.0,-0.016310978680849075,0.009085424244403839,-0.025791365653276443,0.0,0.0,0.0,0.0,0.0,0.0,0.0,0.0,0.0,0.046666666865348816,0.3769230842590332,10.011795043945312,0.0,0.0,0.0,0.0,0.0,0.0,0.0,0.0,0.0
1646243487.6801581,6672,1646243487,679853744,,0.0,0.0,0.0,0.0,0.0,0.0,0.0,0.0,0.0,0.0,0.0,0.0,0.0,-0.004593071062117815,0.0005633095279335976,-0.00022502047067973763,0.0,0.0,0.0,0.0,0.0,0.0,0.0,0.0,0.0,0.11846154183149338,0.07179487496614456,9.56128215789795,0.0,0.0,0.0,0.0,0.0,0.0,0.0,0.0,0.0
1646243487.6823378,6673,1646243487,682047514,,0.0,0.0,0.0,0.0,0.0,0.0,0.0,0.0,0.0,0.0,0.0,0.0,0.0,-0.016310978680849075,0.009085424244403839,-0.0076818703673779964,0.0,0.0,0.0,0.0,0.0,0.0,0.0,0.0,0.0,0.4271794855594635,0.3123077154159546,9.604358673095703,0.0,0.0,0.0,0.0,0.0,0.0,0.0,0.0,0.0
1646243487.6846352,6674,1646243487,684295616,,0.0,0.0,0.0,0.0,0.0,0.0,0.0,0.0,0.0,0.0,0.0,0.0,0.0,-0.0077888634987175465,0.01654227450489998,-0.00022502047067973763,0.0,0.0,0.0,0.0,0.0,0.0,0.0,0.0,0.0,0.22615385055541992,0.2979487180709839,9.667179107666016,0.0,0.0,0.0,0.0,0.0,0.0,0.0,0.0,0.0
1646243487.686895,6675,1646243487,686554308,,0.0,0.0,0.0,0.0,0.0,0.0,0.0,0.0,0.0,0.0,0.0,0.0,0.0,-0.008854128420352936,0.0016285729361698031,0.018949739634990692,0.0,0.0,0.0,0.0,0.0,0.0,0.0,0.0,0.0,0.046666666865348816,-0.048461541533470154,9.591794967651367,0.0,0.0,0.0,0.0,0.0,0.0,0.0,0.0,0.0
1646243487.6892455,6676,1646243487,688801265,,0.0,0.0,0.0,0.0,0.0,0.0,0.0,0.0,0.0,0.0,0.0,0.0,0.0,-0.004593071062117815,0.015477010980248451,-0.0034208132419735193,0.0,0.0,0.0,0.0,0.0,0.0,0.0,0.0,0.0,-0.032307691872119904,0.3392307758331299,10.203845977783203,0.0,0.0,0.0,0.0,0.0,0.0,0.0,0.0,0.0
1646243487.6913948,6677,1646243487,691075626,,0.0,0.0,0.0,0.0,0.0,0.0,0.0,0.0,0.0,0.0,0.0,0.0,0.0,-0.017376242205500603,0.011215953156352043,0.005101301707327366,0.0,0.0,0.0,0.0,0.0,0.0,0.0,0.0,0.0,-0.08974359184503555,-0.014358974993228912,10.038718223571777,0.0,0.0,0.0,0.0,0.0,0.0,0.0,0.0,0.0
1646243487.6934588,6678,1646243487,693230084,,0.0,0.0,0.0,0.0,0.0,0.0,0.0,0.0,0.0,0.0,0.0,0.0,0.0,-0.02163730002939701,-0.012219863012433052,-0.005551342852413654,0.0,0.0,0.0,0.0,0.0,0.0,0.0,0.0,0.0,0.01794871874153614,0.2979487180709839,10.002820014953613,0.0,0.0,0.0,0.0,0.0,0.0,0.0,0.0,0.0
1646243487.6963718,6679,1646243487,695388212,,0.0,0.0,0.0,0.0,0.0,0.0,0.0,0.0,0.0,0.0,0.0,0.0,0.0,-0.026963621377944946,0.017607539892196655,-0.009812399744987488,0.0,0.0,0.0,0.0,0.0,0.0,0.0,0.0,0.0,0.2117948830127716,0.14358974993228912,9.65461540222168,0.0,0.0,0.0,0.0,0.0,0.0,0.0,0.0,0.0
1646243487.6976702,6680,1646243487,697522971,,0.0,0.0,0.0,0.0,0.0,0.0,0.0,0.0,0.0,0.0,0.0,0.0,0.0,-0.012049921788275242,-0.0026324838399887085,-0.0076818703673779964,0.0,0.0,0.0,0.0,0.0,0.0,0.0,0.0,0.0,0.22794872522354126,0.18128205835819244,9.730000495910645,0.0,0.0,0.0,0.0,0.0,0.0,0.0,0.0,0.0
1646243487.6997993,6681,1646243487,699649531,,0.0,0.0,0.0,0.0,0.0,0.0,0.0,0.0,0.0,0.0,0.0,0.0,0.0,-0.02163730002939701,-0.0005019548698328435,-0.01939977891743183,0.0,0.0,0.0,0.0,0.0,0.0,0.0,0.0,0.0,0.1148717999458313,0.03769230842590332,9.704872131347656,0.0,0.0,0.0,0.0,0.0,0.0,0.0,0.0,0.0
1646243487.701887,6682,1646243487,701792604,,0.0,0.0,0.0,0.0,0.0,0.0,0.0,0.0,0.0,0.0,0.0,0.0,0.0,-0.026963621377944946,-0.0036977482959628105,-0.0023555487859994173,0.0,0.0,0.0,0.0,0.0,0.0,0.0,0.0,0.0,0.1058974415063858,-0.05384615436196327,9.880769729614258,0.0,0.0,0.0,0.0,0.0,0.0,0.0,0.0,0.0
1646243487.7040243,6683,1646243487,703911981,,0.0,0.0,0.0,0.0,0.0,0.0,0.0,0.0,0.0,0.0,0.0,0.0,0.0,-0.017376242205500603,-0.0015672193840146065,0.008297095075249672,0.0,0.0,0.0,0.0,0.0,0.0,0.0,0.0,0.0,0.2387179583311081,0.1238461583852768,9.870000839233398,0.0,0.0,0.0,0.0,0.0,0.0,0.0,0.0,0.0
1646243487.7061532,6684,1646243487,706044720,,0.0,0.0,0.0,0.0,0.0,0.0,0.0,0.0,0.0,0.0,0.0,0.0,0.0,-0.01844150573015213,0.00588963134214282,0.01681920886039734,0.0,0.0,0.0,0.0,0.0,0.0,0.0,0.0,0.0,-0.005384615622460842,0.016153845936059952,9.771282196044922,0.0,0.0,0.0,0.0,0.0,0.0,0.0,0.0,0.0
1646243487.708239,6685,1646243487,708145667,,0.0,0.0,0.0,0.0,0.0,0.0,0.0,0.0,0.0,0.0,0.0,0.0,0.0,-0.022702563554048538,0.0016285729361698031,-0.018334513530135155,0.0,0.0,0.0,0.0,0.0,0.0,0.0,0.0,0.0,0.012564103119075298,0.38410258293151855,10.018974304199219,0.0,0.0,0.0,0.0,0.0,0.0,0.0,0.0,0.0
1646243487.7104082,6686,1646243487,710253019,,0.0,0.0,0.0,0.0,0.0,0.0,0.0,0.0,0.0,0.0,0.0,0.0,0.0,-0.03335520997643471,0.017607539892196655,0.005101301707327366,0.0,0.0,0.0,0.0,0.0,0.0,0.0,0.0,0.0,0.06820512562990189,0.02153846248984337,9.977692604064941,0.0,0.0,0.0,0.0,0.0,0.0,0.0,0.0,0.0
1646243487.712506,6687,1646243487,712359790,,0.0,0.0,0.0,0.0,0.0,0.0,0.0,0.0,0.0,0.0,0.0,0.0,0.0,-0.023767828941345215,0.0005633095279335976,0.010427623987197876,0.0,0.0,0.0,0.0,0.0,0.0,0.0,0.0,0.0,-0.19025641679763794,0.44871795177459717,10.368974685668945,0.0,0.0,0.0,0.0,0.0,0.0,0.0,0.0,0.0
1646243487.7146409,6688,1646243487,714460413,,0.0,0.0,0.0,0.0,0.0,0.0,0.0,0.0,0.0,0.0,0.0,0.0,0.0,-0.030159417539834976,-0.0026324838399887085,0.002970772795379162,0.0,0.0,0.0,0.0,0.0,0.0,0.0,0.0,0.0,0.048461541533470154,-0.09153846651315689,9.878974914550781,0.0,0.0,0.0,0.0,0.0,0.0,0.0,0.0,0.0
1646243487.7166984,6689,1646243487,716559368,,0.0,0.0,0.0,0.0,0.0,0.0,0.0,0.0,0.0,0.0,0.0,0.0,0.0,-0.028028886765241623,-0.010089334100484848,0.002970772795379162,0.0,0.0,0.0,0.0,0.0,0.0,0.0,0.0,0.0,0.09512820839881897,0.2153846174478531,9.941795349121094,0.0,0.0,0.0,0.0,0.0,0.0,0.0,0.0,0.0
1646243487.7187963,6690,1646243487,718657630,,0.0,0.0,0.0,0.0,0.0,0.0,0.0,0.0,0.0,0.0,0.0,0.0,0.0,-0.0429425872862339,0.006954895332455635,0.02001500315964222,0.0,0.0,0.0,0.0,0.0,0.0,0.0,0.0,0.0,-0.03948718309402466,0.06820512562990189,10.10333251953125,0.0,0.0,0.0,0.0,0.0,0.0,0.0,0.0,0.0
1646243487.7208602,6691,1646243487,720766028,,0.0,0.0,0.0,0.0,0.0,0.0,0.0,0.0,0.0,0.0,0.0,0.0,0.0,-0.024833092465996742,-0.0005019548698328435,0.004036037251353264,0.0,0.0,0.0,0.0,0.0,0.0,0.0,0.0,0.0,0.06461538374423981,0.5241025686264038,9.997435569763184,0.0,0.0,0.0,0.0,0.0,0.0,0.0,0.0,0.0
1646243487.7229888,6692,1646243487,722871318,,0.0,0.0,0.0,0.0,0.0,0.0,0.0,0.0,0.0,0.0,0.0,0.0,0.0,-0.031224681064486504,0.01441174652427435,-0.005551342852413654,0.0,0.0,0.0,0.0,0.0,0.0,0.0,0.0,0.0,0.15974359214305878,-0.2117948830127716,9.566666603088379,0.0,0.0,0.0,0.0,0.0,0.0,0.0,0.0,0.0
1646243487.7250855,6693,1646243487,724972238,,0.0,0.0,0.0,0.0,0.0,0.0,0.0,0.0,0.0,0.0,0.0,0.0,0.0,-0.026963621377944946,-0.017546184360980988,0.018949739634990692,0.0,0.0,0.0,0.0,0.0,0.0,0.0,0.0,0.0,0.2028205245733261,0.3446153998374939,9.846667289733887,0.0,0.0,0.0,0.0,0.0,0.0,0.0,0.0,0.0
1646243487.727251,6694,1646243487,727069346,,0.0,0.0,0.0,0.0,0.0,0.0,0.0,0.0,0.0,0.0,0.0,0.0,0.0,-0.03335520997643471,-0.012219863012433052,-0.00022502047067973763,0.0,0.0,0.0,0.0,0.0,0.0,0.0,0.0,0.0,0.11846154183149338,-0.11666666716337204,9.712051391601562,0.0,0.0,0.0,0.0,0.0,0.0,0.0,0.0,0.0
1646243487.7292662,6695,1646243487,729163071,,0.0,0.0,0.0,0.0,0.0,0.0,0.0,0.0,0.0,0.0,0.0,0.0,0.0,-0.03335520997643471,0.01654227450489998,0.03066764585673809,0.0,0.0,0.0,0.0,0.0,0.0,0.0,0.0,0.0,-0.1651282161474228,0.5025641322135925,10.239744186401367,0.0,0.0,0.0,0.0,0.0,0.0,0.0,0.0,0.0
1646243487.7314055,6696,1646243487,731277031,,0.0,0.0,0.0,0.0,0.0,0.0,0.0,0.0,0.0,0.0,0.0,0.0,0.0,-0.014180450700223446,-0.0015672193840146065,-0.008747135289013386,0.0,0.0,0.0,0.0,0.0,0.0,0.0,0.0,0.0,-0.1794871836900711,0.31051284074783325,10.363590240478516,0.0,0.0,0.0,0.0,0.0,0.0,0.0,0.0,0.0
1646243487.733547,6697,1646243487,733374110,,0.0,0.0,0.0,0.0,0.0,0.0,0.0,0.0,0.0,0.0,0.0,0.0,0.0,-0.03228994458913803,0.0016285729361698031,0.009362359531223774,0.0,0.0,0.0,0.0,0.0,0.0,0.0,0.0,0.0,-0.14358974993228912,-0.032307691872119904,9.783845901489258,0.0,0.0,0.0,0.0,0.0,0.0,0.0,0.0,0.0
1646243487.735833,6698,1646243487,735471097,,0.0,0.0,0.0,0.0,0.0,0.0,0.0,0.0,0.0,0.0,0.0,0.0,0.0,-0.024833092465996742,-0.013285127468407154,-0.0023555487859994173,0.0,0.0,0.0,0.0,0.0,0.0,0.0,0.0,0.0,-0.026923077180981636,0.3410256505012512,10.017179489135742,0.0,0.0,0.0,0.0,0.0,0.0,0.0,0.0,0.0
1646243487.7377381,6699,1646243487,737658149,,0.0,0.0,0.0,0.0,0.0,0.0,0.0,0.0,0.0,0.0,0.0,0.0,0.0,-0.016310978680849075,-0.0036977482959628105,0.029602382332086563,0.0,0.0,0.0,0.0,0.0,0.0,0.0,0.0,0.0,-0.09871795028448105,0.007179487496614456,9.936410903930664,0.0,0.0,0.0,0.0,0.0,0.0,0.0,0.0,0.0
1646243487.7399077,6700,1646243487,739723208,,0.0,0.0,0.0,0.0,0.0,0.0,0.0,0.0,0.0,0.0,0.0,0.0,0.0,-0.02163730002939701,0.0005633095279335976,0.00723183061927557,0.0,0.0,0.0,0.0,0.0,0.0,0.0,0.0,0.0,-0.16153846681118011,0.24589744210243225,10.128461837768555,0.0,0.0,0.0,0.0,0.0,0.0,0.0,0.0,0.0
1646243487.741979,6701,1646243487,741852074,,0.0,0.0,0.0,0.0,0.0,0.0,0.0,0.0,0.0,0.0,0.0,0.0,0.0,-0.0077888634987175465,-0.010089334100484848,0.01575394533574581,0.0,0.0,0.0,0.0,0.0,0.0,0.0,0.0,0.0,0.016153845936059952,-0.19025641679763794,9.451794624328613,0.0,0.0,0.0,0.0,0.0,0.0,0.0,0.0,0.0
1646243487.7441235,6702,1646243487,743986317,,0.0,0.0,0.0,0.0,0.0,0.0,0.0,0.0,0.0,0.0,0.0,0.0,0.0,-0.014180450700223446,0.0026938372757285833,0.0019055086886510253,0.0,0.0,0.0,0.0,0.0,0.0,0.0,0.0,0.0,0.10769230872392654,0.09153846651315689,9.798205375671387,0.0,0.0,0.0,0.0,0.0,0.0,0.0,0.0,0.0
1646243487.7463298,6703,1646243487,746136811,,0.0,0.0,0.0,0.0,0.0,0.0,0.0,0.0,0.0,0.0,0.0,0.0,0.0,0.0007332512177526951,0.0005633095279335976,0.002970772795379162,0.0,0.0,0.0,0.0,0.0,0.0,0.0,0.0,0.0,-0.06641025841236115,-0.21000000834465027,9.405128479003906,0.0,0.0,0.0,0.0,0.0,0.0,0.0,0.0,0.0
1646243487.7484016,6704,1646243487,748232317,,0.0,0.0,0.0,0.0,0.0,0.0,0.0,0.0,0.0,0.0,0.0,0.0,0.0,-0.008854128420352936,0.0037591024301946163,0.03173290938138962,0.0,0.0,0.0,0.0,0.0,0.0,0.0,0.0,0.0,0.023333333432674408,0.21000000834465027,9.527179718017578,0.0,0.0,0.0,0.0,0.0,0.0,0.0,0.0,0.0
1646243487.750398,6705,1646243487,750327336,,0.0,0.0,0.0,0.0,0.0,0.0,0.0,0.0,0.0,0.0,0.0,0.0,0.0,-0.016310978680849075,-0.005828278139233589,0.0019055086886510253,0.0,0.0,0.0,0.0,0.0,0.0,0.0,0.0,0.0,-0.09153846651315689,-0.05743589997291565,9.721025466918945,0.0,0.0,0.0,0.0,0.0,0.0,0.0,0.0,0.0
1646243487.7525818,6706,1646243487,752426403,,0.0,0.0,0.0,0.0,0.0,0.0,0.0,0.0,0.0,0.0,0.0,0.0,0.0,-0.009919392876327038,-0.015415656380355358,0.004036037251353264,0.0,0.0,0.0,0.0,0.0,0.0,0.0,0.0,0.0,0.1705128252506256,-0.3500000238418579,9.327948570251465,0.0,0.0,0.0,0.0,0.0,0.0,0.0,0.0,0.0
1646243487.7547388,6707,1646243487,754528703,,0.0,0.0,0.0,0.0,0.0,0.0,0.0,0.0,0.0,0.0,0.0,0.0,0.0,0.001798515673726797,-0.014350391924381256,0.004036037251353264,0.0,0.0,0.0,0.0,0.0,0.0,0.0,0.0,0.0,0.13102564215660095,0.06641025841236115,9.455384254455566,0.0,0.0,0.0,0.0,0.0,0.0,0.0,0.0,0.0
1646243487.7568812,6708,1646243487,756729437,,0.0,0.0,0.0,0.0,0.0,0.0,0.0,0.0,0.0,0.0,0.0,0.0,0.0,-0.0013972773449495435,-0.013285127468407154,0.002970772795379162,0.0,0.0,0.0,0.0,0.0,0.0,0.0,0.0,0.0,-0.023333333432674408,-0.27282050251960754,9.713846206665039,0.0,0.0,0.0,0.0,0.0,0.0,0.0,0.0,0.0
1646243487.7589905,6709,1646243487,758822842,,0.0,0.0,0.0,0.0,0.0,0.0,0.0,0.0,0.0,0.0,0.0,0.0,0.0,-0.02909415028989315,0.027194919064641,0.004036037251353264,0.0,0.0,0.0,0.0,0.0,0.0,0.0,0.0,0.0,-0.10410256683826447,0.1471794843673706,9.537948608398438,0.0,0.0,0.0,0.0,0.0,0.0,0.0,0.0,0.0
1646243487.7610524,6710,1646243487,760917144,,0.0,0.0,0.0,0.0,0.0,0.0,0.0,0.0,0.0,0.0,0.0,0.0,0.0,-0.012049921788275242,0.0026938372757285833,0.03173290938138962,0.0,0.0,0.0,0.0,0.0,0.0,0.0,0.0,0.0,0.001794871874153614,-0.24948717653751373,9.631281852722168,0.0,0.0,0.0,0.0,0.0,0.0,0.0,0.0,0.0
1646243487.763245,6711,1646243487,763150652,,0.0,0.0,0.0,0.0,0.0,0.0,0.0,0.0,0.0,0.0,0.0,0.0,0.0,0.0028637798968702555,0.01973806880414486,0.004036037251353264,0.0,0.0,0.0,0.0,0.0,0.0,0.0,0.0,0.0,0.16692309081554413,-0.11846154183149338,9.170000076293945,0.0,0.0,0.0,0.0,0.0,0.0,0.0,0.0,0.0
1646243487.7653809,6712,1646243487,765247430,,0.0,0.0,0.0,0.0,0.0,0.0,0.0,0.0,0.0,0.0,0.0,0.0,0.0,-0.028028886765241623,0.009085424244403839,-0.017269250005483627,0.0,0.0,0.0,0.0,0.0,0.0,0.0,0.0,0.0,0.15794873237609863,-0.39846155047416687,9.173589706420898,0.0,0.0,0.0,0.0,0.0,0.0,0.0,0.0,0.0
1646243487.7674816,6713,1646243487,767344447,,0.0,0.0,0.0,0.0,0.0,0.0,0.0,0.0,0.0,0.0,0.0,0.0,0.0,0.0028637798968702555,0.0016285729361698031,0.004036037251353264,0.0,0.0,0.0,0.0,0.0,0.0,0.0,0.0,0.0,0.07897436618804932,0.07179487496614456,9.532564163208008,0.0,0.0,0.0,0.0,0.0,0.0,0.0,0.0,0.0
1646243487.7696545,6714,1646243487,769474111,,0.0,0.0,0.0,0.0,0.0,0.0,0.0,0.0,0.0,0.0,0.0,0.0,0.0,-0.0067235990427434444,-0.01648092083632946,-0.008747135289013386,0.0,0.0,0.0,0.0,0.0,0.0,0.0,0.0,0.0,0.13102564215660095,-0.2943589687347412,9.577435493469238,0.0,0.0,0.0,0.0,0.0,0.0,0.0,0.0,0.0
1646243487.7717369,6715,1646243487,771577197,,0.0,0.0,0.0,0.0,0.0,0.0,0.0,0.0,0.0,0.0,0.0,0.0,0.0,0.001798515673726797,-0.007958807051181793,-0.01407345850020647,0.0,0.0,0.0,0.0,0.0,0.0,0.0,0.0,0.0,0.24051281809806824,-0.03769230842590332,9.168205261230469,0.0,0.0,0.0,0.0,0.0,0.0,0.0,0.0,0.0
1646243487.773802,6716,1646243487,773682478,,0.0,0.0,0.0,0.0,0.0,0.0,0.0,0.0,0.0,0.0,0.0,0.0,0.0,-0.014180450700223446,0.0037591024301946163,0.006166566163301468,0.0,0.0,0.0,0.0,0.0,0.0,0.0,0.0,0.0,0.2441025674343109,-0.42897436022758484,9.464359283447266,0.0,0.0,0.0,0.0,0.0,0.0,0.0,0.0,0.0
1646243487.7762933,6717,1646243487,775818524,,0.0,0.0,0.0,0.0,0.0,0.0,0.0,0.0,0.0,0.0,0.0,0.0,0.0,-0.004593071062117815,0.0026938372757285833,-0.008747135289013386,0.0,0.0,0.0,0.0,0.0,0.0,0.0,0.0,0.0,-0.10769230872392654,0.19384616613388062,9.577435493469238,0.0,0.0,0.0,0.0,0.0,0.0,0.0,0.0,0.0
1646243487.7781308,6718,1646243487,777962793,,0.0,0.0,0.0,0.0,0.0,0.0,0.0,0.0,0.0,0.0,0.0,0.0,0.0,0.013516423292458057,-0.015415656380355358,-0.0162039864808321,0.0,0.0,0.0,0.0,0.0,0.0,0.0,0.0,0.0,-0.1148717999458313,-0.34282052516937256,9.719230651855469,0.0,0.0,0.0,0.0,0.0,0.0,0.0,0.0,0.0
1646243487.7802734,6719,1646243487,780118908,,0.0,0.0,0.0,0.0,0.0,0.0,0.0,0.0,0.0,0.0,0.0,0.0,0.0,0.0007332512177526951,-0.014350391924381256,0.0008402442326769233,0.0,0.0,0.0,0.0,0.0,0.0,0.0,0.0,0.0,0.0735897421836853,0.22615385055541992,9.764102935791016,0.0,0.0,0.0,0.0,0.0,0.0,0.0,0.0,0.0
1646243487.7825005,6720,1646243487,782266168,,0.0,0.0,0.0,0.0,0.0,0.0,0.0,0.0,0.0,0.0,0.0,0.0,0.0,0.04014803469181061,0.0026938372757285833,-0.02046504244208336,0.0,0.0,0.0,0.0,0.0,0.0,0.0,0.0,0.0,-0.12564103305339813,-0.030512820929288864,9.762307167053223,0.0,0.0,0.0,0.0,0.0,0.0,0.0,0.0,0.0
1646243487.7847128,6721,1646243487,784493427,,0.0,0.0,0.0,0.0,0.0,0.0,0.0,0.0,0.0,0.0,0.0,0.0,0.0,0.011385894380509853,-0.01115459855645895,-0.005551342852413654,0.0,0.0,0.0,0.0,0.0,0.0,0.0,0.0,0.0,0.1148717999458313,-0.40205129981040955,9.414102554321289,0.0,0.0,0.0,0.0,0.0,0.0,0.0,0.0,0.0
1646243487.7869596,6722,1646243487,786645037,,0.0,0.0,0.0,0.0,0.0,0.0,0.0,0.0,0.0,0.0,0.0,0.0,0.0,-0.0024625419173389673,0.03358650580048561,0.01255815289914608,0.0,0.0,0.0,0.0,0.0,0.0,0.0,0.0,0.0,0.15974359214305878,-0.01974359154701233,9.756922721862793,0.0,0.0,0.0,0.0,0.0,0.0,0.0,0.0,0.0
1646243487.788955,6723,1646243487,788798615,,0.0,0.0,0.0,0.0,0.0,0.0,0.0,0.0,0.0,0.0,0.0,0.0,0.0,0.013516423292458057,-0.01115459855645895,0.00723183061927557,0.0,0.0,0.0,0.0,0.0,0.0,0.0,0.0,0.0,0.025128206238150597,-0.42000001668930054,9.843076705932617,0.0,0.0,0.0,0.0,0.0,0.0,0.0,0.0,0.0
1646243487.7912219,6724,1646243487,790947146,,0.0,0.0,0.0,0.0,0.0,0.0,0.0,0.0,0.0,0.0,0.0,0.0,0.0,-0.0003320134710520506,0.012281217612326145,-0.01087766420096159,0.0,0.0,0.0,0.0,0.0,0.0,0.0,0.0,0.0,0.025128206238150597,-0.07717949151992798,9.791025161743164,0.0,0.0,0.0,0.0,0.0,0.0,0.0,0.0,0.0
1646243487.7936957,6725,1646243487,793083006,,0.0,0.0,0.0,0.0,0.0,0.0,0.0,0.0,0.0,0.0,0.0,0.0,0.0,0.026299597695469856,0.015477010980248451,-0.0076818703673779964,0.0,0.0,0.0,0.0,0.0,0.0,0.0,0.0,0.0,0.21358974277973175,-0.38769233226776123,9.615128517150879,0.0,0.0,0.0,0.0,0.0,0.0,0.0,0.0,0.0
1646243487.7954764,6726,1646243487,795279079,,0.0,0.0,0.0,0.0,0.0,0.0,0.0,0.0,0.0,0.0,0.0,0.0,0.0,0.0103206317871809,-0.005828278139233589,-0.00022502047067973763,0.0,0.0,0.0,0.0,0.0,0.0,0.0,0.0,0.0,0.06641025841236115,-0.3482051491737366,9.503846168518066,0.0,0.0,0.0,0.0,0.0,0.0,0.0,0.0,0.0
1646243487.7976308,6727,1646243487,797401734,,0.0,0.0,0.0,0.0,0.0,0.0,0.0,0.0,0.0,0.0,0.0,0.0,0.0,0.03269118070602417,0.0037591024301946163,-0.004486078396439552,0.0,0.0,0.0,0.0,0.0,0.0,0.0,0.0,0.0,0.02153846248984337,-0.03410256281495094,9.837692260742188,0.0,0.0,0.0,0.0,0.0,0.0,0.0,0.0,0.0
1646243487.7997072,6728,1646243487,799522436,,0.0,0.0,0.0,0.0,0.0,0.0,0.0,0.0,0.0,0.0,0.0,0.0,0.0,0.013516423292458057,0.013346482068300247,0.02001500315964222,0.0,0.0,0.0,0.0,0.0,0.0,0.0,0.0,0.0,-0.28717949986457825,-0.01974359154701233,10.191282272338867,0.0,0.0,0.0,0.0,0.0,0.0,0.0,0.0,0.0
1646243487.8019714,6729,1646243487,801693927,,0.0,0.0,0.0,0.0,0.0,0.0,0.0,0.0,0.0,0.0,0.0,0.0,0.0,0.03482171148061752,0.0005633095279335976,-0.028987158089876175,0.0,0.0,0.0,0.0,0.0,0.0,0.0,0.0,0.0,-0.06461538374423981,-0.12025640904903412,10.185897827148438,0.0,0.0,0.0,0.0,0.0,0.0,0.0,0.0,0.0
1646243487.8040729,6730,1646243487,803855084,,0.0,0.0,0.0,0.0,0.0,0.0,0.0,0.0,0.0,0.0,0.0,0.0,0.0,0.018842745572328568,-0.0005019548698328435,-0.0034208132419735193,0.0,0.0,0.0,0.0,0.0,0.0,0.0,0.0,0.0,0.2297435998916626,-0.05384615436196327,9.844871520996094,0.0,0.0,0.0,0.0,0.0,0.0,0.0,0.0,0.0
1646243487.8061972,6731,1646243487,805998282,,0.0,0.0,0.0,0.0,0.0,0.0,0.0,0.0,0.0,0.0,0.0,0.0,0.0,0.04547435790300369,0.0016285729361698031,-0.02046504244208336,0.0,0.0,0.0,0.0,0.0,0.0,0.0,0.0,0.0,-0.0825641080737114,0.1651282161474228,10.4120512008667,0.0,0.0,0.0,0.0,0.0,0.0,0.0,0.0,0.0
1646243487.808374,6732,1646243487,808129706,,0.0,0.0,0.0,0.0,0.0,0.0,0.0,0.0,0.0,0.0,0.0,0.0,0.0,0.026299597695469856,-0.01115459855645895,0.01255815289914608,0.0,0.0,0.0,0.0,0.0,0.0,0.0,0.0,0.0,-0.11666666716337204,-0.19205129146575928,10.225384712219238,0.0,0.0,0.0,0.0,0.0,0.0,0.0,0.0,0.0
1646243487.8104417,6733,1646243487,810259131,,0.0,0.0,0.0,0.0,0.0,0.0,0.0,0.0,0.0,0.0,0.0,0.0,0.0,0.038017503917217255,-0.0047630127519369125,-0.0076818703673779964,0.0,0.0,0.0,0.0,0.0,0.0,0.0,0.0,0.0,-0.07000000029802322,0.01794871874153614,10.018974304199219,0.0,0.0,0.0,0.0,0.0,0.0,0.0,0.0,0.0
1646243487.8126523,6734,1646243487,812450499,,0.0,0.0,0.0,0.0,0.0,0.0,0.0,0.0,0.0,0.0,0.0,0.0,0.0,0.026299597695469856,-0.0036977482959628105,0.009362359531223774,0.0,0.0,0.0,0.0,0.0,0.0,0.0,0.0,0.0,0.11666666716337204,-0.36974361538887024,9.91128158569336,0.0,0.0,0.0,0.0,0.0,0.0,0.0,0.0,0.0
1646243487.8148136,6735,1646243487,814577645,,0.0,0.0,0.0,0.0,0.0,0.0,0.0,0.0,0.0,0.0,0.0,0.0,0.0,0.030560653656721115,-0.014350391924381256,-0.005551342852413654,0.0,0.0,0.0,0.0,0.0,0.0,0.0,0.0,0.0,0.028717949986457825,0.09512820839881897,9.537948608398438,0.0,0.0,0.0,0.0,0.0,0.0,0.0,0.0,0.0
1646243487.8173363,6736,1646243487,816828350,,0.0,0.0,0.0,0.0,0.0,0.0,0.0,0.0,0.0,0.0,0.0,0.0,0.0,0.04334382712841034,-0.025003038346767426,-0.006616605911403894,0.0,0.0,0.0,0.0,0.0,0.0,0.0,0.0,0.0,0.12564103305339813,-0.1974359005689621,9.852051734924316,0.0,0.0,0.0,0.0,0.0,0.0,0.0,0.0,0.0
1646243487.8191137,6737,1646243487,818953526,,0.0,0.0,0.0,0.0,0.0,0.0,0.0,0.0,0.0,0.0,0.0,0.0,0.0,-0.0035278063733130693,-0.005828278139233589,-0.013008194044232368,0.0,0.0,0.0,0.0,0.0,0.0,0.0,0.0,0.0,-0.26923078298568726,0.2889743745326996,10.352821350097656,0.0,0.0,0.0,0.0,0.0,0.0,0.0,0.0,0.0
1646243487.8213072,6738,1646243487,821074582,,0.0,0.0,0.0,0.0,0.0,0.0,0.0,0.0,0.0,0.0,0.0,0.0,0.0,0.015646953135728836,-0.0036977482959628105,-0.0034208132419735193,0.0,0.0,0.0,0.0,0.0,0.0,0.0,0.0,0.0,-0.07538461685180664,-0.2064102590084076,10.001025199890137,0.0,0.0,0.0,0.0,0.0,0.0,0.0,0.0,0.0
1646243487.8234375,6739,1646243487,823234317,,0.0,0.0,0.0,0.0,0.0,0.0,0.0,0.0,0.0,0.0,0.0,0.0,0.0,0.02949538826942444,-0.0005019548698328435,0.01575394533574581,0.0,0.0,0.0,0.0,0.0,0.0,0.0,0.0,0.0,-0.025128206238150597,-0.1794871836900711,10.14102554321289,0.0,0.0,0.0,0.0,0.0,0.0,0.0,0.0,0.0
1646243487.8256254,6740,1646243487,825389131,,0.0,0.0,0.0,0.0,0.0,0.0,0.0,0.0,0.0,0.0,0.0,0.0,0.0,0.0007332512177526951,-0.021807242184877396,0.004036037251353264,0.0,0.0,0.0,0.0,0.0,0.0,0.0,0.0,0.0,-0.03769230842590332,0.044871795922517776,10.078205108642578,0.0,0.0,0.0,0.0,0.0,0.0,0.0,0.0,0.0
1646243487.8277693,6741,1646243487,827514643,,0.0,0.0,0.0,0.0,0.0,0.0,0.0,0.0,0.0,0.0,0.0,0.0,0.0,-0.0003320134710520506,-0.005828278139233589,0.014688681811094284,0.0,0.0,0.0,0.0,0.0,0.0,0.0,0.0,0.0,0.16871795058250427,-0.2925640940666199,9.577435493469238,0.0,0.0,0.0,0.0,0.0,0.0,0.0,0.0,0.0
1646243487.8300092,6742,1646243487,829731611,,0.0,0.0,0.0,0.0,0.0,0.0,0.0,0.0,0.0,0.0,0.0,0.0,0.0,-0.0035278063733130693,-0.0036977482959628105,0.0019055086886510253,0.0,0.0,0.0,0.0,0.0,0.0,0.0,0.0,0.0,0.14000000059604645,0.23333333432674408,9.661794662475586,0.0,0.0,0.0,0.0,0.0,0.0,0.0,0.0,0.0
1646243487.8320427,6743,1646243487,831861607,,0.0,0.0,0.0,0.0,0.0,0.0,0.0,0.0,0.0,0.0,0.0,0.0,0.0,0.0220385380089283,-0.0047630127519369125,0.002970772795379162,0.0,0.0,0.0,0.0,0.0,0.0,0.0,0.0,0.0,0.06102564185857773,-0.19025641679763794,9.690512657165527,0.0,0.0,0.0,0.0,0.0,0.0,0.0,0.0,0.0
1646243487.834141,6744,1646243487,833973364,,0.0,0.0,0.0,0.0,0.0,0.0,0.0,0.0,0.0,0.0,0.0,0.0,0.0,-0.005658335518091917,-0.01648092083632946,0.009362359531223774,0.0,0.0,0.0,0.0,0.0,0.0,0.0,0.0,0.0,0.05384615436196327,0.003589743748307228,9.676154136657715,0.0,0.0,0.0,0.0,0.0,0.0,0.0,0.0,0.0
1646243487.836242,6745,1646243487,836089381,,0.0,0.0,0.0,0.0,0.0,0.0,0.0,0.0,0.0,0.0,0.0,0.0,0.0,0.004994308575987816,-0.018611449748277664,0.004036037251353264,0.0,0.0,0.0,0.0,0.0,0.0,0.0,0.0,0.0,0.33384618163108826,-0.10948718339204788,9.410512924194336,0.0,0.0,0.0,0.0,0.0,0.0,0.0,0.0,0.0
1646243487.8383636,6746,1646243487,838207445,,0.0,0.0,0.0,0.0,0.0,0.0,0.0,0.0,0.0,0.0,0.0,0.0,0.0,-0.005658335518091917,-0.010089334100484848,0.01681920886039734,0.0,0.0,0.0,0.0,0.0,0.0,0.0,0.0,0.0,-0.05205128341913223,-0.06641025841236115,9.862820625305176,0.0,0.0,0.0,0.0,0.0,0.0,0.0,0.0,0.0
1646243487.8405519,6747,1646243487,840392010,,0.0,0.0,0.0,0.0,0.0,0.0,0.0,0.0,0.0,0.0,0.0,0.0,0.0,0.00925536546856165,-0.012219863012433052,-0.013008194044232368,0.0,0.0,0.0,0.0,0.0,0.0,0.0,0.0,0.0,0.10410256683826447,0.12743589282035828,9.651025772094727,0.0,0.0,0.0,0.0,0.0,0.0,0.0,0.0,0.0
1646243487.8428738,6748,1646243487,842570788,,0.0,0.0,0.0,0.0,0.0,0.0,0.0,0.0,0.0,0.0,0.0,0.0,0.0,0.00712483748793602,-0.026068301871418953,-0.009812399744987488,0.0,0.0,0.0,0.0,0.0,0.0,0.0,0.0,0.0,-0.09512820839881897,-0.12205128371715546,9.45358943939209,0.0,0.0,0.0,0.0,0.0,0.0,0.0,0.0,0.0
1646243487.8450067,6749,1646243487,844737703,,0.0,0.0,0.0,0.0,0.0,0.0,0.0,0.0,0.0,0.0,0.0,0.0,0.0,-0.01098465733230114,-0.012219863012433052,0.002970772795379162,0.0,0.0,0.0,0.0,0.0,0.0,0.0,0.0,0.0,-0.08615384995937347,0.2997435927391052,10.193077087402344,0.0,0.0,0.0,0.0,0.0,0.0,0.0,0.0,0.0
1646243487.8471649,6750,1646243487,846900768,,0.0,0.0,0.0,0.0,0.0,0.0,0.0,0.0,0.0,0.0,0.0,0.0,0.0,0.02523433417081833,-0.0036977482959628105,-0.0023555487859994173,0.0,0.0,0.0,0.0,0.0,0.0,0.0,0.0,0.0,-0.02153846248984337,-0.09333333373069763,9.525384902954102,0.0,0.0,0.0,0.0,0.0,0.0,0.0,0.0,0.0
1646243487.849258,6751,1646243487,849047652,,0.0,0.0,0.0,0.0,0.0,0.0,0.0,0.0,0.0,0.0,0.0,0.0,0.0,0.01777748018503189,0.00588963134214282,0.008297095075249672,0.0,0.0,0.0,0.0,0.0,0.0,0.0,0.0,0.0,0.24230769276618958,0.15076923370361328,9.421281814575195,0.0,0.0,0.0,0.0,0.0,0.0,0.0,0.0,0.0
1646243487.851404,6752,1646243487,851181655,,0.0,0.0,0.0,0.0,0.0,0.0,0.0,0.0,0.0,0.0,0.0,0.0,0.0,0.00712483748793602,0.0026938372757285833,0.032798174768686295,0.0,0.0,0.0,0.0,0.0,0.0,0.0,0.0,0.0,0.2476923167705536,-0.2028205245733261,9.399744033813477,0.0,0.0,0.0,0.0,0.0,0.0,0.0,0.0,0.0
1646243487.8535883,6753,1646243487,853317788,,0.0,0.0,0.0,0.0,0.0,0.0,0.0,0.0,0.0,0.0,0.0,0.0,0.0,0.012451158836483955,0.0016285729361698031,0.0232107974588871,0.0,0.0,0.0,0.0,0.0,0.0,0.0,0.0,0.0,0.4182051420211792,0.05743589997291565,9.342308044433594,0.0,0.0,0.0,0.0,0.0,0.0,0.0,0.0,0.0
1646243487.8556836,6754,1646243487,855455558,,0.0,0.0,0.0,0.0,0.0,0.0,0.0,0.0,0.0,0.0,0.0,0.0,0.0,0.0220385380089283,0.009085424244403839,0.0008402442326769233,0.0,0.0,0.0,0.0,0.0,0.0,0.0,0.0,0.0,0.01794871874153614,0.07717949151992798,9.60076904296875,0.0,0.0,0.0,0.0,0.0,0.0,0.0,0.0,0.0
1646243487.8583646,6755,1646243487,857580206,,0.0,0.0,0.0,0.0,0.0,0.0,0.0,0.0,0.0,0.0,0.0,0.0,0.0,-0.004593071062117815,0.0016285729361698031,0.0008402442326769233,0.0,0.0,0.0,0.0,0.0,0.0,0.0,0.0,0.0,0.14897435903549194,-0.0825641080737114,9.40333366394043,0.0,0.0,0.0,0.0,0.0,0.0,0.0,0.0,0.0
1646243487.8598776,6756,1646243487,859711695,,0.0,0.0,0.0,0.0,0.0,0.0,0.0,0.0,0.0,0.0,0.0,0.0,0.0,-0.0003320134710520506,-0.006893542595207691,-0.01939977891743183,0.0,0.0,0.0,0.0,0.0,0.0,0.0,0.0,0.0,0.09153846651315689,0.17769230902194977,9.51282024383545,0.0,0.0,0.0,0.0,0.0,0.0,0.0,0.0,0.0
1646243487.8620138,6757,1646243487,861837357,,0.0,0.0,0.0,0.0,0.0,0.0,0.0,0.0,0.0,0.0,0.0,0.0,0.0,0.019908009096980095,0.01654227450489998,0.011492888443171978,0.0,0.0,0.0,0.0,0.0,0.0,0.0,0.0,0.0,0.07897436618804932,-0.044871795922517776,9.724615097045898,0.0,0.0,0.0,0.0,0.0,0.0,0.0,0.0,0.0
1646243487.864252,6758,1646243487,863997846,,0.0,0.0,0.0,0.0,0.0,0.0,0.0,0.0,0.0,0.0,0.0,0.0,0.0,-0.005658335518091917,0.009085424244403839,-0.0162039864808321,0.0,0.0,0.0,0.0,0.0,0.0,0.0,0.0,0.0,-0.025128206238150597,0.4558974504470825,9.963333129882812,0.0,0.0,0.0,0.0,0.0,0.0,0.0,0.0,0.0
1646243487.8665626,6759,1646243487,866198579,,0.0,0.0,0.0,0.0,0.0,0.0,0.0,0.0,0.0,0.0,0.0,0.0,0.0,0.003929044120013714,-0.0005019548698328435,0.010427623987197876,0.0,0.0,0.0,0.0,0.0,0.0,0.0,0.0,0.0,0.2387179583311081,0.02153846248984337,9.712051391601562,0.0,0.0,0.0,0.0,0.0,0.0,0.0,0.0,0.0
1646243487.868748,6760,1646243487,868399874,,0.0,0.0,0.0,0.0,0.0,0.0,0.0,0.0,0.0,0.0,0.0,0.0,0.0,-0.0003320134710520506,-0.0047630127519369125,-0.00022502047067973763,0.0,0.0,0.0,0.0,0.0,0.0,0.0,0.0,0.0,-0.03410256281495094,0.4128205180168152,9.819743156433105,0.0,0.0,0.0,0.0,0.0,0.0,0.0,0.0,0.0
1646243487.870951,6761,1646243487,870595542,,0.0,0.0,0.0,0.0,0.0,0.0,0.0,0.0,0.0,0.0,0.0,0.0,0.0,-0.005658335518091917,0.006954895332455635,-0.00022502047067973763,0.0,0.0,0.0,0.0,0.0,0.0,0.0,0.0,0.0,0.35179489850997925,-0.032307691872119904,9.293846130371094,0.0,0.0,0.0,0.0,0.0,0.0,0.0,0.0,0.0
1646243487.8731208,6762,1646243487,872790985,,0.0,0.0,0.0,0.0,0.0,0.0,0.0,0.0,0.0,0.0,0.0,0.0,0.0,0.003929044120013714,0.018672803416848183,-0.005551342852413654,0.0,0.0,0.0,0.0,0.0,0.0,0.0,0.0,0.0,0.2943589687347412,0.28179487586021423,9.548717498779297,0.0,0.0,0.0,0.0,0.0,0.0,0.0,0.0,0.0
1646243487.8755243,6763,1646243487,874982600,,0.0,0.0,0.0,0.0,0.0,0.0,0.0,0.0,0.0,0.0,0.0,0.0,0.0,-0.030159417539834976,-0.0047630127519369125,-0.013008194044232368,0.0,0.0,0.0,0.0,0.0,0.0,0.0,0.0,0.0,0.09692308306694031,0.11666666716337204,9.819743156433105,0.0,0.0,0.0,0.0,0.0,0.0,0.0,0.0,0.0
1646243487.877596,6764,1646243487,877174922,,0.0,0.0,0.0,0.0,0.0,0.0,0.0,0.0,0.0,0.0,0.0,0.0,0.0,-0.0077888634987175465,0.0005633095279335976,-0.00022502047067973763,0.0,0.0,0.0,0.0,0.0,0.0,0.0,0.0,0.0,0.23512820899486542,0.3535897731781006,9.607949256896973,0.0,0.0,0.0,0.0,0.0,0.0,0.0,0.0,0.0
1646243487.879694,6765,1646243487,879441839,,0.0,0.0,0.0,0.0,0.0,0.0,0.0,0.0,0.0,0.0,0.0,0.0,0.0,0.011385894380509853,0.0005633095279335976,-0.006616605911403894,0.0,0.0,0.0,0.0,0.0,0.0,0.0,0.0,0.0,0.03410256281495094,0.39307692646980286,10.00820541381836,0.0,0.0,0.0,0.0,0.0,0.0,0.0,0.0,0.0
1646243487.8820572,6766,1646243487,881670448,,0.0,0.0,0.0,0.0,0.0,0.0,0.0,0.0,0.0,0.0,0.0,0.0,0.0,-0.012049921788275242,0.0005633095279335976,0.014688681811094284,0.0,0.0,0.0,0.0,0.0,0.0,0.0,0.0,0.0,0.36076924204826355,-0.0735897421836853,9.55230712890625,0.0,0.0,0.0,0.0,0.0,0.0,0.0,0.0,0.0
1646243487.8841546,6767,1646243487,883869240,,0.0,0.0,0.0,0.0,0.0,0.0,0.0,0.0,0.0,0.0,0.0,0.0,0.0,-0.014180450700223446,0.025064390152692795,-0.004486078396439552,0.0,0.0,0.0,0.0,0.0,0.0,0.0,0.0,0.0,0.014358974993228912,0.25487178564071655,10.033333778381348,0.0,0.0,0.0,0.0,0.0,0.0,0.0,0.0,0.0
1646243487.8864377,6768,1646243487,886099428,,0.0,0.0,0.0,0.0,0.0,0.0,0.0,0.0,0.0,0.0,0.0,0.0,0.0,-0.016310978680849075,-0.0015672193840146065,-0.008747135289013386,0.0,0.0,0.0,0.0,0.0,0.0,0.0,0.0,0.0,-0.15794873237609863,-0.03410256281495094,9.85564136505127,0.0,0.0,0.0,0.0,0.0,0.0,0.0,0.0,0.0
1646243487.8887591,6769,1646243487,888339104,,0.0,0.0,0.0,0.0,0.0,0.0,0.0,0.0,0.0,0.0,0.0,0.0,0.0,-0.014180450700223446,0.008020159788429737,-0.0012902843300253153,0.0,0.0,0.0,0.0,0.0,0.0,0.0,0.0,0.0,0.025128206238150597,0.2656410336494446,9.932821273803711,0.0,0.0,0.0,0.0,0.0,0.0,0.0,0.0,0.0
1646243487.8908672,6770,1646243487,890562986,,0.0,0.0,0.0,0.0,0.0,0.0,0.0,0.0,0.0,0.0,0.0,0.0,0.0,0.012451158836483955,0.011215953156352043,-0.030052425339818,0.0,0.0,0.0,0.0,0.0,0.0,0.0,0.0,0.0,-0.10051282495260239,0.3176923394203186,10.088973999023438,0.0,0.0,0.0,0.0,0.0,0.0,0.0,0.0,0.0
1646243487.8931894,6771,1646243487,892869144,,0.0,0.0,0.0,0.0,0.0,0.0,0.0,0.0,0.0,0.0,0.0,0.0,0.0,-0.022702563554048538,-0.0026324838399887085,0.005101301707327366,0.0,0.0,0.0,0.0,0.0,0.0,0.0,0.0,0.0,0.13461539149284363,0.20461538434028625,9.94538402557373,0.0,0.0,0.0,0.0,0.0,0.0,0.0,0.0,0.0
1646243487.8954375,6772,1646243487,895113402,,0.0,0.0,0.0,0.0,0.0,0.0,0.0,0.0,0.0,0.0,0.0,0.0,0.0,-0.013115186244249344,-0.0026324838399887085,-0.008747135289013386,0.0,0.0,0.0,0.0,0.0,0.0,0.0,0.0,0.0,0.21000000834465027,-0.09512820839881897,9.500256538391113,0.0,0.0,0.0,0.0,0.0,0.0,0.0,0.0,0.0
1646243487.8987207,6773,1646243487,897301979,,0.0,0.0,0.0,0.0,0.0,0.0,0.0,0.0,0.0,0.0,0.0,0.0,0.0,-0.02589835785329342,0.004824366886168718,-0.0076818703673779964,0.0,0.0,0.0,0.0,0.0,0.0,0.0,0.0,0.0,0.12025640904903412,-0.15794873237609863,9.701282501220703,0.0,0.0,0.0,0.0,0.0,0.0,0.0,0.0,0.0
1646243487.8998065,6774,1646243487,899485909,,0.0,0.0,0.0,0.0,0.0,0.0,0.0,0.0,0.0,0.0,0.0,0.0,0.0,-0.009919392876327038,0.015477010980248451,0.004036037251353264,0.0,0.0,0.0,0.0,0.0,0.0,0.0,0.0,0.0,0.01794871874153614,0.40205129981040955,9.966922760009766,0.0,0.0,0.0,0.0,0.0,0.0,0.0,0.0,0.0
1646243487.9020364,6775,1646243487,901665107,,0.0,0.0,0.0,0.0,0.0,0.0,0.0,0.0,0.0,0.0,0.0,0.0,0.0,-0.0077888634987175465,0.008020159788429737,-0.009812399744987488,0.0,0.0,0.0,0.0,0.0,0.0,0.0,0.0,0.0,-0.0825641080737114,-0.06820512562990189,9.925641059875488,0.0,0.0,0.0,0.0,0.0,0.0,0.0,0.0,0.0
1646243487.9042618,6776,1646243487,903901291,,0.0,0.0,0.0,0.0,0.0,0.0,0.0,0.0,0.0,0.0,0.0,0.0,0.0,-0.012049921788275242,0.0026938372757285833,-0.03324821963906288,0.0,0.0,0.0,0.0,0.0,0.0,0.0,0.0,0.0,0.1328205168247223,0.3176923394203186,9.677948951721191,0.0,0.0,0.0,0.0,0.0,0.0,0.0,0.0,0.0
1646243487.9065738,6777,1646243487,906152591,,0.0,0.0,0.0,0.0,0.0,0.0,0.0,0.0,0.0,0.0,0.0,0.0,0.0,-0.03228994458913803,0.0005633095279335976,0.024276060983538628,0.0,0.0,0.0,0.0,0.0,0.0,0.0,0.0,0.0,0.20461538434028625,-0.16692309081554413,9.821538925170898,0.0,0.0,0.0,0.0,0.0,0.0,0.0,0.0,0.0
1646243487.9087634,6778,1646243487,908379461,,0.0,0.0,0.0,0.0,0.0,0.0,0.0,0.0,0.0,0.0,0.0,0.0,0.0,-0.014180450700223446,-0.007958807051181793,0.0019055086886510253,0.0,0.0,0.0,0.0,0.0,0.0,0.0,0.0,0.0,0.06641025841236115,0.2853846251964569,9.85025691986084,0.0,0.0,0.0,0.0,0.0,0.0,0.0,0.0,0.0
1646243487.9108984,6779,1646243487,910566790,,0.0,0.0,0.0,0.0,0.0,0.0,0.0,0.0,0.0,0.0,0.0,0.0,0.0,-0.01844150573015213,0.0026938372757285833,-0.01407345850020647,0.0,0.0,0.0,0.0,0.0,0.0,0.0,0.0,0.0,0.07000000029802322,0.2853846251964569,10.126666069030762,0.0,0.0,0.0,0.0,0.0,0.0,0.0,0.0,0.0
1646243487.913181,6780,1646243487,912749411,,0.0,0.0,0.0,0.0,0.0,0.0,0.0,0.0,0.0,0.0,0.0,0.0,0.0,-0.026963621377944946,0.004824366886168718,0.0232107974588871,0.0,0.0,0.0,0.0,0.0,0.0,0.0,0.0,0.0,-0.2476923167705536,0.01974359154701233,10.212820053100586,0.0,0.0,0.0,0.0,0.0,0.0,0.0,0.0,0.0
1646243487.915273,6781,1646243487,914999954,,0.0,0.0,0.0,0.0,0.0,0.0,0.0,0.0,0.0,0.0,0.0,0.0,0.0,-0.012049921788275242,0.00588963134214282,-0.0034208132419735193,0.0,0.0,0.0,0.0,0.0,0.0,0.0,0.0,0.0,-0.030512820929288864,0.3715384900569916,10.144615173339844,0.0,0.0,0.0,0.0,0.0,0.0,0.0,0.0,0.0
1646243487.9175544,6782,1646243487,917225535,,0.0,0.0,0.0,0.0,0.0,0.0,0.0,0.0,0.0,0.0,0.0,0.0,0.0,-0.03335520997643471,-0.0026324838399887085,0.0232107974588871,0.0,0.0,0.0,0.0,0.0,0.0,0.0,0.0,0.0,0.21897436678409576,-0.05384615436196327,9.830512046813965,0.0,0.0,0.0,0.0,0.0,0.0,0.0,0.0,0.0
1646243487.9197295,6783,1646243487,919426163,,0.0,0.0,0.0,0.0,0.0,0.0,0.0,0.0,0.0,0.0,0.0,0.0,0.0,-0.034420475363731384,-0.021807242184877396,0.0008402442326769233,0.0,0.0,0.0,0.0,0.0,0.0,0.0,0.0,0.0,0.1561538577079773,0.3643589913845062,9.769487380981445,0.0,0.0,0.0,0.0,0.0,0.0,0.0,0.0,0.0
1646243487.9220603,6784,1646243487,921672286,,0.0,0.0,0.0,0.0,0.0,0.0,0.0,0.0,0.0,0.0,0.0,0.0,0.0,-0.014180450700223446,-0.0036977482959628105,0.021080268546938896,0.0,0.0,0.0,0.0,0.0,0.0,0.0,0.0,0.0,0.2620512843132019,-0.27282050251960754,9.520000457763672,0.0,0.0,0.0,0.0,0.0,0.0,0.0,0.0,0.0
1646243487.9242837,6785,1646243487,923956795,,0.0,0.0,0.0,0.0,0.0,0.0,0.0,0.0,0.0,0.0,0.0,0.0,0.0,-0.031224681064486504,-0.0005019548698328435,0.01575394533574581,0.0,0.0,0.0,0.0,0.0,0.0,0.0,0.0,0.0,0.02153846248984337,0.31948718428611755,9.839487075805664,0.0,0.0,0.0,0.0,0.0,0.0,0.0,0.0,0.0
1646243487.926373,6786,1646243487,926142268,,0.0,0.0,0.0,0.0,0.0,0.0,0.0,0.0,0.0,0.0,0.0,0.0,0.0,-0.01098465733230114,-0.02393777295947075,-0.01939977891743183,0.0,0.0,0.0,0.0,0.0,0.0,0.0,0.0,0.0,-0.12025640904903412,-0.11128205060958862,9.95435905456543,0.0,0.0,0.0,0.0,0.0,0.0,0.0,0.0,0.0
1646243487.9286535,6787,1646243487,928359459,,0.0,0.0,0.0,0.0,0.0,0.0,0.0,0.0,0.0,0.0,0.0,0.0,0.0,-0.019506771117448807,0.0037591024301946163,0.009362359531223774,0.0,0.0,0.0,0.0,0.0,0.0,0.0,0.0,0.0,-0.12025640904903412,-0.13102564215660095,9.882563591003418,0.0,0.0,0.0,0.0,0.0,0.0,0.0,0.0,0.0
1646243487.9309237,6788,1646243487,930548409,,0.0,0.0,0.0,0.0,0.0,0.0,0.0,0.0,0.0,0.0,0.0,0.0,0.0,-0.017376242205500603,0.0005633095279335976,0.0008402442326769233,0.0,0.0,0.0,0.0,0.0,0.0,0.0,0.0,0.0,-0.016153845936059952,0.26025640964508057,10.065641403198242,0.0,0.0,0.0,0.0,0.0,0.0,0.0,0.0,0.0
1646243487.9329967,6789,1646243487,932739578,,0.0,0.0,0.0,0.0,0.0,0.0,0.0,0.0,0.0,0.0,0.0,0.0,0.0,-0.02163730002939701,-0.009024071507155895,0.011492888443171978,0.0,0.0,0.0,0.0,0.0,0.0,0.0,0.0,0.0,0.16333334147930145,-0.1561538577079773,9.435641288757324,0.0,0.0,0.0,0.0,0.0,0.0,0.0,0.0,0.0
1646243487.9352918,6790,1646243487,934954586,,0.0,0.0,0.0,0.0,0.0,0.0,0.0,0.0,0.0,0.0,0.0,0.0,0.0,0.001798515673726797,-0.0026324838399887085,0.0019055086886510253,0.0,0.0,0.0,0.0,0.0,0.0,0.0,0.0,0.0,-0.19384616613388062,0.22435897588729858,10.133846282958984,0.0,0.0,0.0,0.0,0.0,0.0,0.0,0.0,0.0
1646243487.9376268,6791,1646243487,937156525,,0.0,0.0,0.0,0.0,0.0,0.0,0.0,0.0,0.0,0.0,0.0,0.0,0.0,-0.0067235990427434444,-0.021807242184877396,0.04771187901496887,0.0,0.0,0.0,0.0,0.0,0.0,0.0,0.0,0.0,-0.18307693302631378,-0.026923077180981636,9.916666030883789,0.0,0.0,0.0,0.0,0.0,0.0,0.0,0.0,0.0
1646243487.94088,6792,1646243487,939333228,,0.0,0.0,0.0,0.0,0.0,0.0,0.0,0.0,0.0,0.0,0.0,0.0,0.0,-0.005658335518091917,-0.025003038346767426,-0.006616605911403894,0.0,0.0,0.0,0.0,0.0,0.0,0.0,0.0,0.0,-0.10769230872392654,0.048461541533470154,10.094359397888184,0.0,0.0,0.0,0.0,0.0,0.0,0.0,0.0,0.0
1646243487.9417899,6793,1646243487,941525624,,0.0,0.0,0.0,0.0,0.0,0.0,0.0,0.0,0.0,0.0,0.0,0.0,0.0,-0.02909415028989315,-0.0047630127519369125,-0.01087766420096159,0.0,0.0,0.0,0.0,0.0,0.0,0.0,0.0,0.0,0.007179487496614456,0.07897436618804932,9.701282501220703,0.0,0.0,0.0,0.0,0.0,0.0,0.0,0.0,0.0
1646243487.9441364,6794,1646243487,943767667,,0.0,0.0,0.0,0.0,0.0,0.0,0.0,0.0,0.0,0.0,0.0,0.0,0.0,-0.015245715156197548,-0.013285127468407154,0.010427623987197876,0.0,0.0,0.0,0.0,0.0,0.0,0.0,0.0,0.0,0.2476923167705536,0.12564103305339813,9.582819938659668,0.0,0.0,0.0,0.0,0.0,0.0,0.0,0.0,0.0
1646243487.9463367,6795,1646243487,945957288,,0.0,0.0,0.0,0.0,0.0,0.0,0.0,0.0,0.0,0.0,0.0,0.0,0.0,-0.0067235990427434444,0.009085424244403839,0.00723183061927557,0.0,0.0,0.0,0.0,0.0,0.0,0.0,0.0,0.0,0.1974359005689621,-0.21897436678409576,9.51282024383545,0.0,0.0,0.0,0.0,0.0,0.0,0.0,0.0,0.0
1646243487.9483626,6796,1646243487,948155350,,0.0,0.0,0.0,0.0,0.0,0.0,0.0,0.0,0.0,0.0,0.0,0.0,0.0,-0.004593071062117815,-0.014350391924381256,-0.00022502047067973763,0.0,0.0,0.0,0.0,0.0,0.0,0.0,0.0,0.0,0.04307692497968674,0.2207692414522171,9.55589771270752,0.0,0.0,0.0,0.0,0.0,0.0,0.0,0.0,0.0
1646243487.9506423,6797,1646243487,950369676,,0.0,0.0,0.0,0.0,0.0,0.0,0.0,0.0,0.0,0.0,0.0,0.0,0.0,-0.019506771117448807,-0.0026324838399887085,0.008297095075249672,0.0,0.0,0.0,0.0,0.0,0.0,0.0,0.0,0.0,-0.03948718309402466,0.02153846248984337,9.765897750854492,0.0,0.0,0.0,0.0,0.0,0.0,0.0,0.0,0.0
1646243487.953069,6798,1646243487,952575732,,0.0,0.0,0.0,0.0,0.0,0.0,0.0,0.0,0.0,0.0,0.0,0.0,0.0,0.014581688679754734,0.0037591024301946163,0.008297095075249672,0.0,0.0,0.0,0.0,0.0,0.0,0.0,0.0,0.0,-0.19923077523708344,-0.06641025841236115,9.74794864654541,0.0,0.0,0.0,0.0,0.0,0.0,0.0,0.0,0.0
1646243487.9551125,6799,1646243487,954766502,,0.0,0.0,0.0,0.0,0.0,0.0,0.0,0.0,0.0,0.0,0.0,0.0,0.0,-0.02163730002939701,-0.018611449748277664,-0.0012902843300253153,0.0,0.0,0.0,0.0,0.0,0.0,0.0,0.0,0.0,-0.12025640904903412,0.05205128341913223,9.91128158569336,0.0,0.0,0.0,0.0,0.0,0.0,0.0,0.0,0.0
1646243487.9573889,6800,1646243487,957060929,,0.0,0.0,0.0,0.0,0.0,0.0,0.0,0.0,0.0,0.0,0.0,0.0,0.0,-0.009919392876327038,0.006954895332455635,0.004036037251353264,0.0,0.0,0.0,0.0,0.0,0.0,0.0,0.0,0.0,0.09871795028448105,-0.3033333420753479,9.378205299377441,0.0,0.0,0.0,0.0,0.0,0.0,0.0,0.0,0.0
1646243487.9596984,6801,1646243487,959320091,,0.0,0.0,0.0,0.0,0.0,0.0,0.0,0.0,0.0,0.0,0.0,0.0,0.0,-0.0003320134710520506,0.018672803416848183,0.006166566163301468,0.0,0.0,0.0,0.0,0.0,0.0,0.0,0.0,0.0,0.17589744925498962,-0.05384615436196327,9.566666603088379,0.0,0.0,0.0,0.0,0.0,0.0,0.0,0.0,0.0
1646243487.9617565,6802,1646243487,961510142,,0.0,0.0,0.0,0.0,0.0,0.0,0.0,0.0,0.0,0.0,0.0,0.0,0.0,-0.014180450700223446,0.006954895332455635,-0.0012902843300253153,0.0,0.0,0.0,0.0,0.0,0.0,0.0,0.0,0.0,-0.14358974993228912,-0.007179487496614456,9.93820571899414,0.0,0.0,0.0,0.0,0.0,0.0,0.0,0.0,0.0
1646243487.9640343,6803,1646243487,963739880,,0.0,0.0,0.0,0.0,0.0,0.0,0.0,0.0,0.0,0.0,0.0,0.0,0.0,-0.015245715156197548,0.0005633095279335976,0.011492888443171978,0.0,0.0,0.0,0.0,0.0,0.0,0.0,0.0,0.0,-0.15435898303985596,-0.29076921939849854,9.615128517150879,0.0,0.0,0.0,0.0,0.0,0.0,0.0,0.0,0.0
1646243487.9662535,6804,1646243487,965959138,,0.0,0.0,0.0,0.0,0.0,0.0,0.0,0.0,0.0,0.0,0.0,0.0,0.0,-0.0024625419173389673,0.010150688700377941,-0.028987158089876175,0.0,0.0,0.0,0.0,0.0,0.0,0.0,0.0,0.0,-0.06820512562990189,0.0735897421836853,9.783845901489258,0.0,0.0,0.0,0.0,0.0,0.0,0.0,0.0,0.0
1646243487.9686077,6805,1646243487,968201782,,0.0,0.0,0.0,0.0,0.0,0.0,0.0,0.0,0.0,0.0,0.0,0.0,0.0,-0.004593071062117815,-0.0047630127519369125,0.017884474247694016,0.0,0.0,0.0,0.0,0.0,0.0,0.0,0.0,0.0,0.2943589687347412,-0.4271794855594635,9.198718070983887,0.0,0.0,0.0,0.0,0.0,0.0,0.0,0.0,0.0
1646243487.9707053,6806,1646243487,970461176,,0.0,0.0,0.0,0.0,0.0,0.0,0.0,0.0,0.0,0.0,0.0,0.0,0.0,-0.004593071062117815,0.01973806880414486,0.005101301707327366,0.0,0.0,0.0,0.0,0.0,0.0,0.0,0.0,0.0,0.2674359083175659,0.06102564185857773,9.543333053588867,0.0,0.0,0.0,0.0,0.0,0.0,0.0,0.0,0.0
1646243487.9730535,6807,1646243487,972676059,,0.0,0.0,0.0,0.0,0.0,0.0,0.0,0.0,0.0,0.0,0.0,0.0,0.0,0.012451158836483955,-0.01115459855645895,-0.01939977891743183,0.0,0.0,0.0,0.0,0.0,0.0,0.0,0.0,0.0,0.14000000059604645,-0.48461538553237915,9.322564125061035,0.0,0.0,0.0,0.0,0.0,0.0,0.0,0.0,0.0
1646243487.9752178,6808,1646243487,974921420,,0.0,0.0,0.0,0.0,0.0,0.0,0.0,0.0,0.0,0.0,0.0,0.0,0.0,0.0007332512177526951,0.011215953156352043,-0.006616605911403894,0.0,0.0,0.0,0.0,0.0,0.0,0.0,0.0,0.0,-0.016153845936059952,0.25846153497695923,9.670769691467285,0.0,0.0,0.0,0.0,0.0,0.0,0.0,0.0,0.0
1646243487.977513,6809,1646243487,977125921,,0.0,0.0,0.0,0.0,0.0,0.0,0.0,0.0,0.0,0.0,0.0,0.0,0.0,0.00925536546856165,-0.0026324838399887085,0.0008402442326769233,0.0,0.0,0.0,0.0,0.0,0.0,0.0,0.0,0.0,-0.08974359184503555,-0.3392307758331299,9.774871826171875,0.0,0.0,0.0,0.0,0.0,0.0,0.0,0.0,0.0
1646243487.9796803,6810,1646243487,979337986,,0.0,0.0,0.0,0.0,0.0,0.0,0.0,0.0,0.0,0.0,0.0,0.0,0.0,0.012451158836483955,0.0005633095279335976,-0.0023555487859994173,0.0,0.0,0.0,0.0,0.0,0.0,0.0,0.0,0.0,-0.06102564185857773,0.19923077523708344,9.916666030883789,0.0,0.0,0.0,0.0,0.0,0.0,0.0,0.0,0.0
1646243487.9827905,6811,1646243487,981605154,,0.0,0.0,0.0,0.0,0.0,0.0,0.0,0.0,0.0,0.0,0.0,0.0,0.0,0.0220385380089283,0.00588963134214282,-0.013008194044232368,0.0,0.0,0.0,0.0,0.0,0.0,0.0,0.0,0.0,-0.07000000029802322,0.03589743748307228,9.950769424438477,0.0,0.0,0.0,0.0,0.0,0.0,0.0,0.0,0.0
1646243487.9840581,6812,1646243487,983797138,,0.0,0.0,0.0,0.0,0.0,0.0,0.0,0.0,0.0,0.0,0.0,0.0,0.0,0.004994308575987816,0.023999126628041267,0.011492888443171978,0.0,0.0,0.0,0.0,0.0,0.0,0.0,0.0,0.0,0.016153845936059952,-0.36076924204826355,9.792820930480957,0.0,0.0,0.0,0.0,0.0,0.0,0.0,0.0,0.0
1646243487.9862752,6813,1646243487,985990876,,0.0,0.0,0.0,0.0,0.0,0.0,0.0,0.0,0.0,0.0,0.0,0.0,0.0,0.013516423292458057,-0.015415656380355358,-0.005551342852413654,0.0,0.0,0.0,0.0,0.0,0.0,0.0,0.0,0.0,-0.16692309081554413,0.1058974415063858,10.062051773071289,0.0,0.0,0.0,0.0,0.0,0.0,0.0,0.0,0.0
1646243487.988584,6814,1646243487,988215754,,0.0,0.0,0.0,0.0,0.0,0.0,0.0,0.0,0.0,0.0,0.0,0.0,0.0,0.004994308575987816,0.0016285729361698031,0.005101301707327366,0.0,0.0,0.0,0.0,0.0,0.0,0.0,0.0,0.0,-0.10410256683826447,-0.2997435927391052,9.875385284423828,0.0,0.0,0.0,0.0,0.0,0.0,0.0,0.0,0.0
1646243487.990736,6815,1646243487,990403303,,0.0,0.0,0.0,0.0,0.0,0.0,0.0,0.0,0.0,0.0,0.0,0.0,0.0,0.0103206317871809,-0.006893542595207691,0.01681920886039734,0.0,0.0,0.0,0.0,0.0,0.0,0.0,0.0,0.0,-0.1148717999458313,-0.08794872462749481,9.997435569763184,0.0,0.0,0.0,0.0,0.0,0.0,0.0,0.0,0.0
1646243487.9929779,6816,1646243487,992735869,,0.0,0.0,0.0,0.0,0.0,0.0,0.0,0.0,0.0,0.0,0.0,0.0,0.0,0.023103805258870125,0.015477010980248451,-0.013008194044232368,0.0,0.0,0.0,0.0,0.0,0.0,0.0,0.0,0.0,0.026923077180981636,-0.10230769217014313,9.808974266052246,0.0,0.0,0.0,0.0,0.0,0.0,0.0,0.0,0.0
1646243487.9953847,6817,1646243487,994999439,,0.0,0.0,0.0,0.0,0.0,0.0,0.0,0.0,0.0,0.0,0.0,0.0,0.0,-0.0003320134710520506,0.011215953156352043,0.00723183061927557,0.0,0.0,0.0,0.0,0.0,0.0,0.0,0.0,0.0,0.14179487526416779,-0.25128206610679626,9.518204689025879,0.0,0.0,0.0,0.0,0.0,0.0,0.0,0.0,0.0
1646243487.997551,6818,1646243487,997197714,,0.0,0.0,0.0,0.0,0.0,0.0,0.0,0.0,0.0,0.0,0.0,0.0,0.0,0.00925536546856165,-0.0047630127519369125,0.005101301707327366,0.0,0.0,0.0,0.0,0.0,0.0,0.0,0.0,0.0,0.00897435937076807,-0.09153846651315689,9.886154174804688,0.0,0.0,0.0,0.0,0.0,0.0,0.0,0.0,0.0
1646243487.9997873,6819,1646243487,999456505,,0.0,0.0,0.0,0.0,0.0,0.0,0.0,0.0,0.0,0.0,0.0,0.0,0.0,0.014581688679754734,0.0026938372757285833,-0.005551342852413654,0.0,0.0,0.0,0.0,0.0,0.0,0.0,0.0,0.0,0.12564103305339813,-0.49000000953674316,9.51282024383545,0.0,0.0,0.0,0.0,0.0,0.0,0.0,0.0,0.0
1646243488.0020483,6820,1646243488,1704688,,0.0,0.0,0.0,0.0,0.0,0.0,0.0,0.0,0.0,0.0,0.0,0.0,0.0,0.014581688679754734,0.0037591024301946163,-0.011942928656935692,0.0,0.0,0.0,0.0,0.0,0.0,0.0,0.0,0.0,-0.10410256683826447,0.14538460969924927,10.228974342346191,0.0,0.0,0.0,0.0,0.0,0.0,0.0,0.0,0.0
1646243488.0043125,6821,1646243488,3914030,,0.0,0.0,0.0,0.0,0.0,0.0,0.0,0.0,0.0,0.0,0.0,0.0,0.0,0.013516423292458057,0.0016285729361698031,-0.008747135289013386,0.0,0.0,0.0,0.0,0.0,0.0,0.0,0.0,0.0,-0.12205128371715546,-0.15076923370361328,10.044102668762207,0.0,0.0,0.0,0.0,0.0,0.0,0.0,0.0,0.0
1646243488.006441,6822,1646243488,6145037,,0.0,0.0,0.0,0.0,0.0,0.0,0.0,0.0,0.0,0.0,0.0,0.0,0.0,0.011385894380509853,0.0016285729361698031,-0.015138722956180573,0.0,0.0,0.0,0.0,0.0,0.0,0.0,0.0,0.0,-0.05025641247630119,0.06461538374423981,10.171539306640625,0.0,0.0,0.0,0.0,0.0,0.0,0.0,0.0,0.0
1646243488.0087912,6823,1646243488,8365085,,0.0,0.0,0.0,0.0,0.0,0.0,0.0,0.0,0.0,0.0,0.0,0.0,0.0,0.02097327448427677,0.021868597716093063,-0.0023555487859994173,0.0,0.0,0.0,0.0,0.0,0.0,0.0,0.0,0.0,-0.03410256281495094,0.09871795028448105,9.90410327911377,0.0,0.0,0.0,0.0,0.0,0.0,0.0,0.0,0.0
1646243488.0109842,6824,1646243488,10560433,,0.0,0.0,0.0,0.0,0.0,0.0,0.0,0.0,0.0,0.0,0.0,0.0,0.0,0.008190101943910122,0.0005633095279335976,-0.0012902843300253153,0.0,0.0,0.0,0.0,0.0,0.0,0.0,0.0,0.0,0.1471794843673706,-0.2979487180709839,9.706666946411133,0.0,0.0,0.0,0.0,0.0,0.0,0.0,0.0,0.0
1646243488.014221,6825,1646243488,12909263,,0.0,0.0,0.0,0.0,0.0,0.0,0.0,0.0,0.0,0.0,0.0,0.0,0.0,0.00712483748793602,-0.0015672193840146065,-0.009812399744987488,0.0,0.0,0.0,0.0,0.0,0.0,0.0,0.0,0.0,0.07000000029802322,-0.007179487496614456,9.74256420135498,0.0,0.0,0.0,0.0,0.0,0.0,0.0,0.0,0.0
1646243488.0153234,6826,1646243488,15099905,,0.0,0.0,0.0,0.0,0.0,0.0,0.0,0.0,0.0,0.0,0.0,0.0,0.0,0.015646953135728836,0.00588963134214282,-0.0162039864808321,0.0,0.0,0.0,0.0,0.0,0.0,0.0,0.0,0.0,-0.026923077180981636,-0.2889743745326996,9.844871520996094,0.0,0.0,0.0,0.0,0.0,0.0,0.0,0.0,0.0
1646243488.0176198,6827,1646243488,17286372,,0.0,0.0,0.0,0.0,0.0,0.0,0.0,0.0,0.0,0.0,0.0,0.0,0.0,0.006059573031961918,-0.0047630127519369125,-0.0034208132419735193,0.0,0.0,0.0,0.0,0.0,0.0,0.0,0.0,0.0,-0.08435897529125214,0.15794873237609863,10.139230728149414,0.0,0.0,0.0,0.0,0.0,0.0,0.0,0.0,0.0
1646243488.0199115,6828,1646243488,19522946,,0.0,0.0,0.0,0.0,0.0,0.0,0.0,0.0,0.0,0.0,0.0,0.0,0.0,0.02523433417081833,-0.012219863012433052,-0.0012902843300253153,0.0,0.0,0.0,0.0,0.0,0.0,0.0,0.0,0.0,-0.17769230902194977,-0.08615384995937347,10.010000228881836,0.0,0.0,0.0,0.0,0.0,0.0,0.0,0.0,0.0
1646243488.0220551,6829,1646243488,21721594,,0.0,0.0,0.0,0.0,0.0,0.0,0.0,0.0,0.0,0.0,0.0,0.0,0.0,0.006059573031961918,-0.017546184360980988,-0.00022502047067973763,0.0,0.0,0.0,0.0,0.0,0.0,0.0,0.0,0.0,0.21717949211597443,0.08615384995937347,9.56128215789795,0.0,0.0,0.0,0.0,0.0,0.0,0.0,0.0,0.0
1646243488.025069,6830,1646243488,23938079,,0.0,0.0,0.0,0.0,0.0,0.0,0.0,0.0,0.0,0.0,0.0,0.0,0.0,0.014581688679754734,-0.0036977482959628105,-0.00022502047067973763,0.0,0.0,0.0,0.0,0.0,0.0,0.0,0.0,0.0,0.12025640904903412,-0.1974359005689621,9.726409912109375,0.0,0.0,0.0,0.0,0.0,0.0,0.0,0.0,0.0
1646243488.0264797,6831,1646243488,26169486,,0.0,0.0,0.0,0.0,0.0,0.0,0.0,0.0,0.0,0.0,0.0,0.0,0.0,0.011385894380509853,-0.0047630127519369125,-0.01087766420096159,0.0,0.0,0.0,0.0,0.0,0.0,0.0,0.0,0.0,-0.13641025125980377,0.30153846740722656,10.110512733459473,0.0,0.0,0.0,0.0,0.0,0.0,0.0,0.0,0.0
1646243488.0287895,6832,1646243488,28361889,,0.0,0.0,0.0,0.0,0.0,0.0,0.0,0.0,0.0,0.0,0.0,0.0,0.0,0.003929044120013714,0.009085424244403839,0.008297095075249672,0.0,0.0,0.0,0.0,0.0,0.0,0.0,0.0,0.0,-0.09871795028448105,0.25487178564071655,10.264871597290039,0.0,0.0,0.0,0.0,0.0,0.0,0.0,0.0,0.0
1646243488.0311136,6833,1646243488,30769491,,0.0,0.0,0.0,0.0,0.0,0.0,0.0,0.0,0.0,0.0,0.0,0.0,0.0,-0.0024625419173389673,-0.02713356725871563,0.013623417355120182,0.0,0.0,0.0,0.0,0.0,0.0,0.0,0.0,0.0,-0.06282051652669907,-0.12743589282035828,9.767691612243652,0.0,0.0,0.0,0.0,0.0,0.0,0.0,0.0,0.0
1646243488.0334299,6834,1646243488,33039490,,0.0,0.0,0.0,0.0,0.0,0.0,0.0,0.0,0.0,0.0,0.0,0.0,0.0,0.018842745572328568,-0.005828278139233589,-0.015138722956180573,0.0,0.0,0.0,0.0,0.0,0.0,0.0,0.0,0.0,0.14179487526416779,0.17769230902194977,9.95435905456543,0.0,0.0,0.0,0.0,0.0,0.0,0.0,0.0,0.0
1646243488.0356455,6835,1646243488,35280822,,0.0,0.0,0.0,0.0,0.0,0.0,0.0,0.0,0.0,0.0,0.0,0.0,0.0,0.0007332512177526951,-0.0036977482959628105,0.006166566163301468,0.0,0.0,0.0,0.0,0.0,0.0,0.0,0.0,0.0,0.15256410837173462,-0.05564102530479431,9.60076904296875,0.0,0.0,0.0,0.0,0.0,0.0,0.0,0.0,0.0
1646243488.0377314,6836,1646243488,37479390,,0.0,0.0,0.0,0.0,0.0,0.0,0.0,0.0,0.0,0.0,0.0,0.0,0.0,0.011385894380509853,0.009085424244403839,-0.004486078396439552,0.0,0.0,0.0,0.0,0.0,0.0,0.0,0.0,0.0,0.17230769991874695,0.11307692527770996,9.432050704956055,0.0,0.0,0.0,0.0,0.0,0.0,0.0,0.0,0.0
1646243488.0399919,6837,1646243488,39725473,,0.0,0.0,0.0,0.0,0.0,0.0,0.0,0.0,0.0,0.0,0.0,0.0,0.0,0.00712483748793602,-0.025003038346767426,-0.005551342852413654,0.0,0.0,0.0,0.0,0.0,0.0,0.0,0.0,0.0,0.005384615622460842,-0.2441025674343109,9.534358978271484,0.0,0.0,0.0,0.0,0.0,0.0,0.0,0.0,0.0
1646243488.0423064,6838,1646243488,41908035,,0.0,0.0,0.0,0.0,0.0,0.0,0.0,0.0,0.0,0.0,0.0,0.0,0.0,0.012451158836483955,-0.020741978660225868,-0.0012902843300253153,0.0,0.0,0.0,0.0,0.0,0.0,0.0,0.0,0.0,0.02153846248984337,0.3643589913845062,9.882563591003418,0.0,0.0,0.0,0.0,0.0,0.0,0.0,0.0,0.0
1646243488.0445063,6839,1646243488,44154056,,0.0,0.0,0.0,0.0,0.0,0.0,0.0,0.0,0.0,0.0,0.0,0.0,0.0,0.019908009096980095,0.004824366886168718,-0.024726100265979767,0.0,0.0,0.0,0.0,0.0,0.0,0.0,0.0,0.0,0.2566666603088379,0.19025641679763794,9.351282119750977,0.0,0.0,0.0,0.0,0.0,0.0,0.0,0.0,0.0
1646243488.046676,6840,1646243488,46386990,,0.0,0.0,0.0,0.0,0.0,0.0,0.0,0.0,0.0,0.0,0.0,0.0,0.0,0.01777748018503189,0.0016285729361698031,-0.0034208132419735193,0.0,0.0,0.0,0.0,0.0,0.0,0.0,0.0,0.0,-0.09692308306694031,0.06282051652669907,9.936410903930664,0.0,0.0,0.0,0.0,0.0,0.0,0.0,0.0,0.0
1646243488.04897,6841,1646243488,48591970,,0.0,0.0,0.0,0.0,0.0,0.0,0.0,0.0,0.0,0.0,0.0,0.0,0.0,-0.0024625419173389673,-0.0047630127519369125,-0.0034208132419735193,0.0,0.0,0.0,0.0,0.0,0.0,0.0,0.0,0.0,-0.09692308306694031,0.2207692414522171,9.692307472229004,0.0,0.0,0.0,0.0,0.0,0.0,0.0,0.0,0.0
1646243488.0512745,6842,1646243488,50796301,,0.0,0.0,0.0,0.0,0.0,0.0,0.0,0.0,0.0,0.0,0.0,0.0,0.0,0.026299597695469856,-0.007958807051181793,0.006166566163301468,0.0,0.0,0.0,0.0,0.0,0.0,0.0,0.0,0.0,0.13641025125980377,-0.09333333373069763,9.564871788024902,0.0,0.0,0.0,0.0,0.0,0.0,0.0,0.0,0.0
1646243488.0534427,6843,1646243488,53035484,,0.0,0.0,0.0,0.0,0.0,0.0,0.0,0.0,0.0,0.0,0.0,0.0,0.0,-0.004593071062117815,0.00588963134214282,0.013623417355120182,0.0,0.0,0.0,0.0,0.0,0.0,0.0,0.0,0.0,-0.1148717999458313,0.36974361538887024,10.088973999023438,0.0,0.0,0.0,0.0,0.0,0.0,0.0,0.0,0.0
1646243488.0556457,6844,1646243488,55235379,,0.0,0.0,0.0,0.0,0.0,0.0,0.0,0.0,0.0,0.0,0.0,0.0,0.0,0.0103206317871809,-0.0015672193840146065,-0.009812399744987488,0.0,0.0,0.0,0.0,0.0,0.0,0.0,0.0,0.0,0.025128206238150597,-0.10948718339204788,9.704872131347656,0.0,0.0,0.0,0.0,0.0,0.0,0.0,0.0,0.0
1646243488.058726,6845,1646243488,57486265,,0.0,0.0,0.0,0.0,0.0,0.0,0.0,0.0,0.0,0.0,0.0,0.0,0.0,0.0007332512177526951,-0.006893542595207691,0.004036037251353264,0.0,0.0,0.0,0.0,0.0,0.0,0.0,0.0,0.0,0.06461538374423981,0.0412820540368557,9.794615745544434,0.0,0.0,0.0,0.0,0.0,0.0,0.0,0.0,0.0
1646243488.06003,6846,1646243488,59687447,,0.0,0.0,0.0,0.0,0.0,0.0,0.0,0.0,0.0,0.0,0.0,0.0,0.0,0.01777748018503189,-0.0036977482959628105,-0.025791365653276443,0.0,0.0,0.0,0.0,0.0,0.0,0.0,0.0,0.0,0.06102564185857773,0.1651282161474228,9.575640678405762,0.0,0.0,0.0,0.0,0.0,0.0,0.0,0.0,0.0
1646243488.0622456,6847,1646243488,61873250,,0.0,0.0,0.0,0.0,0.0,0.0,0.0,0.0,0.0,0.0,0.0,0.0,0.0,0.006059573031961918,0.018672803416848183,0.014688681811094284,0.0,0.0,0.0,0.0,0.0,0.0,0.0,0.0,0.0,0.25846153497695923,-0.06282051652669907,9.292051315307617,0.0,0.0,0.0,0.0,0.0,0.0,0.0,0.0,0.0
1646243488.06454,6848,1646243488,64210448,,0.0,0.0,0.0,0.0,0.0,0.0,0.0,0.0,0.0,0.0,0.0,0.0,0.0,0.0007332512177526951,0.0037591024301946163,-0.01407345850020647,0.0,0.0,0.0,0.0,0.0,0.0,0.0,0.0,0.0,0.2297435998916626,0.19384616613388062,9.726409912109375,0.0,0.0,0.0,0.0,0.0,0.0,0.0,0.0,0.0
1646243488.0676491,6849,1646243488,66427856,,0.0,0.0,0.0,0.0,0.0,0.0,0.0,0.0,0.0,0.0,0.0,0.0,0.0,-0.004593071062117815,-0.0015672193840146065,-0.0012902843300253153,0.0,0.0,0.0,0.0,0.0,0.0,0.0,0.0,0.0,0.09333333373069763,-0.09692308306694031,9.455384254455566,0.0,0.0,0.0,0.0,0.0,0.0,0.0,0.0,0.0
1646243488.0690608,6850,1646243488,68634260,,0.0,0.0,0.0,0.0,0.0,0.0,0.0,0.0,0.0,0.0,0.0,0.0,0.0,-0.0067235990427434444,0.004824366886168718,-0.0023555487859994173,0.0,0.0,0.0,0.0,0.0,0.0,0.0,0.0,0.0,0.08435897529125214,0.43974360823631287,10.022564888000488,0.0,0.0,0.0,0.0,0.0,0.0,0.0,0.0,0.0
1646243488.0712113,6851,1646243488,70869526,,0.0,0.0,0.0,0.0,0.0,0.0,0.0,0.0,0.0,0.0,0.0,0.0,0.0,-0.005658335518091917,0.0026938372757285833,-0.0034208132419735193,0.0,0.0,0.0,0.0,0.0,0.0,0.0,0.0,0.0,-0.1471794843673706,0.07179487496614456,9.713846206665039,0.0,0.0,0.0,0.0,0.0,0.0,0.0,0.0,0.0
1646243488.0735776,6852,1646243488,73131958,,0.0,0.0,0.0,0.0,0.0,0.0,0.0,0.0,0.0,0.0,0.0,0.0,0.0,-0.0035278063733130693,-0.0015672193840146065,-0.0162039864808321,0.0,0.0,0.0,0.0,0.0,0.0,0.0,0.0,0.0,0.19384616613388062,0.2943589687347412,9.514616012573242,0.0,0.0,0.0,0.0,0.0,0.0,0.0,0.0,0.0
1646243488.0757535,6853,1646243488,75365300,,0.0,0.0,0.0,0.0,0.0,0.0,0.0,0.0,0.0,0.0,0.0,0.0,0.0,-0.009919392876327038,0.021868597716093063,-0.0012902843300253153,0.0,0.0,0.0,0.0,0.0,0.0,0.0,0.0,0.0,0.012564103119075298,0.5330769419670105,10.074614524841309,0.0,0.0,0.0,0.0,0.0,0.0,0.0,0.0,0.0
1646243488.0780382,6854,1646243488,77593425,,0.0,0.0,0.0,0.0,0.0,0.0,0.0,0.0,0.0,0.0,0.0,0.0,0.0,0.011385894380509853,0.0005633095279335976,-0.009812399744987488,0.0,0.0,0.0,0.0,0.0,0.0,0.0,0.0,0.0,0.1382051259279251,0.023333333432674408,9.500256538391113,0.0,0.0,0.0,0.0,0.0,0.0,0.0,0.0,0.0
1646243488.0802274,6855,1646243488,79871207,,0.0,0.0,0.0,0.0,0.0,0.0,0.0,0.0,0.0,0.0,0.0,0.0,0.0,-0.022702563554048538,-0.015415656380355358,-0.011942928656935692,0.0,0.0,0.0,0.0,0.0,0.0,0.0,0.0,0.0,0.22256410121917725,0.4971795082092285,9.695897102355957,0.0,0.0,0.0,0.0,0.0,0.0,0.0,0.0,0.0
1646243488.082365,6856,1646243488,82075197,,0.0,0.0,0.0,0.0,0.0,0.0,0.0,0.0,0.0,0.0,0.0,0.0,0.0,-0.005658335518091917,0.010150688700377941,0.0019055086886510253,0.0,0.0,0.0,0.0,0.0,0.0,0.0,0.0,0.0,0.3266666829586029,-0.12923076748847961,9.36025619506836,0.0,0.0,0.0,0.0,0.0,0.0,0.0,0.0,0.0
1646243488.0846055,6857,1646243488,84322271,,0.0,0.0,0.0,0.0,0.0,0.0,0.0,0.0,0.0,0.0,0.0,0.0,0.0,-0.005658335518091917,-0.018611449748277664,-0.0034208132419735193,0.0,0.0,0.0,0.0,0.0,0.0,0.0,0.0,0.0,0.2387179583311081,-0.1328205168247223,9.45897388458252,0.0,0.0,0.0,0.0,0.0,0.0,0.0,0.0,0.0
1646243488.0868146,6858,1646243488,86599307,,0.0,0.0,0.0,0.0,0.0,0.0,0.0,0.0,0.0,0.0,0.0,0.0,0.0,-0.014180450700223446,0.023999126628041267,0.004036037251353264,0.0,0.0,0.0,0.0,0.0,0.0,0.0,0.0,0.0,0.03769230842590332,0.3266666829586029,10.031538009643555,0.0,0.0,0.0,0.0,0.0,0.0,0.0,0.0,0.0
1646243488.0892613,6859,1646243488,88819701,,0.0,0.0,0.0,0.0,0.0,0.0,0.0,0.0,0.0,0.0,0.0,0.0,0.0,-0.012049921788275242,-0.0026324838399887085,0.0232107974588871,0.0,0.0,0.0,0.0,0.0,0.0,0.0,0.0,0.0,-0.0825641080737114,0.03769230842590332,10.04769229888916,0.0,0.0,0.0,0.0,0.0,0.0,0.0,0.0,0.0
1646243488.091472,6860,1646243488,91190443,,0.0,0.0,0.0,0.0,0.0,0.0,0.0,0.0,0.0,0.0,0.0,0.0,0.0,-0.0013972773449495435,0.017607539892196655,-0.015138722956180573,0.0,0.0,0.0,0.0,0.0,0.0,0.0,0.0,0.0,0.21000000834465027,0.36974361538887024,9.85564136505127,0.0,0.0,0.0,0.0,0.0,0.0,0.0,0.0,0.0
1646243488.093837,6861,1646243488,93425927,,0.0,0.0,0.0,0.0,0.0,0.0,0.0,0.0,0.0,0.0,0.0,0.0,0.0,0.004994308575987816,0.018672803416848183,-0.008747135289013386,0.0,0.0,0.0,0.0,0.0,0.0,0.0,0.0,0.0,-0.05384615436196327,0.03948718309402466,9.794615745544434,0.0,0.0,0.0,0.0,0.0,0.0,0.0,0.0,0.0
1646243488.0960612,6862,1646243488,95658368,,0.0,0.0,0.0,0.0,0.0,0.0,0.0,0.0,0.0,0.0,0.0,0.0,0.0,-0.022702563554048538,0.009085424244403839,0.024276060983538628,0.0,0.0,0.0,0.0,0.0,0.0,0.0,0.0,0.0,-0.026923077180981636,0.11666666716337204,9.819743156433105,0.0,0.0,0.0,0.0,0.0,0.0,0.0,0.0,0.0
1646243488.0983076,6863,1646243488,97871306,,0.0,0.0,0.0,0.0,0.0,0.0,0.0,0.0,0.0,0.0,0.0,0.0,0.0,-0.020572034642100334,0.01654227450489998,-0.01087766420096159,0.0,0.0,0.0,0.0,0.0,0.0,0.0,0.0,0.0,-0.03948718309402466,0.36076924204826355,9.805384635925293,0.0,0.0,0.0,0.0,0.0,0.0,0.0,0.0,0.0
1646243488.1003761,6864,1646243488,100062730,,0.0,0.0,0.0,0.0,0.0,0.0,0.0,0.0,0.0,0.0,0.0,0.0,0.0,-0.031224681064486504,0.018672803416848183,0.024276060983538628,0.0,0.0,0.0,0.0,0.0,0.0,0.0,0.0,0.0,-0.06461538374423981,0.11666666716337204,10.437179565429688,0.0,0.0,0.0,0.0,0.0,0.0,0.0,0.0,0.0
1646243488.102556,6865,1646243488,102311383,,0.0,0.0,0.0,0.0,0.0,0.0,0.0,0.0,0.0,0.0,0.0,0.0,0.0,-0.02909415028989315,-0.01115459855645895,-0.006616605911403894,0.0,0.0,0.0,0.0,0.0,0.0,0.0,0.0,0.0,-0.09871795028448105,0.5169230699539185,9.983077049255371,0.0,0.0,0.0,0.0,0.0,0.0,0.0,0.0,0.0
1646243488.1050444,6866,1646243488,104537349,,0.0,0.0,0.0,0.0,0.0,0.0,0.0,0.0,0.0,0.0,0.0,0.0,0.0,-0.01844150573015213,0.01973806880414486,0.002970772795379162,0.0,0.0,0.0,0.0,0.0,0.0,0.0,0.0,0.0,0.1148717999458313,-0.15076923370361328,9.826923370361328,0.0,0.0,0.0,0.0,0.0,0.0,0.0,0.0,0.0
1646243488.1071887,6867,1646243488,106742156,,0.0,0.0,0.0,0.0,0.0,0.0,0.0,0.0,0.0,0.0,0.0,0.0,0.0,-0.034420475363731384,-0.007958807051181793,0.01575394533574581,0.0,0.0,0.0,0.0,0.0,0.0,0.0,0.0,0.0,0.1884615421295166,0.37512820959091187,9.9005126953125,0.0,0.0,0.0,0.0,0.0,0.0,0.0,0.0,0.0
1646243488.1106195,6868,1646243488,108957117,,0.0,0.0,0.0,0.0,0.0,0.0,0.0,0.0,0.0,0.0,0.0,0.0,0.0,-0.022702563554048538,0.0037591024301946163,-0.0012902843300253153,0.0,0.0,0.0,0.0,0.0,0.0,0.0,0.0,0.0,0.16333334147930145,-0.15974359214305878,9.652820587158203,0.0,0.0,0.0,0.0,0.0,0.0,0.0,0.0,0.0
1646243488.1114047,6869,1646243488,111158101,,0.0,0.0,0.0,0.0,0.0,0.0,0.0,0.0,0.0,0.0,0.0,0.0,0.0,0.003929044120013714,-0.0047630127519369125,-0.011942928656935692,0.0,0.0,0.0,0.0,0.0,0.0,0.0,0.0,0.0,-0.06461538374423981,0.30512821674346924,9.995640754699707,0.0,0.0,0.0,0.0,0.0,0.0,0.0,0.0,0.0
1646243488.1138232,6870,1646243488,113392180,,0.0,0.0,0.0,0.0,0.0,0.0,0.0,0.0,0.0,0.0,0.0,0.0,0.0,-0.016310978680849075,-0.0005019548698328435,-0.00022502047067973763,0.0,0.0,0.0,0.0,0.0,0.0,0.0,0.0,0.0,-0.05384615436196327,0.1974359005689621,9.981282234191895,0.0,0.0,0.0,0.0,0.0,0.0,0.0,0.0,0.0
1646243488.116046,6871,1646243488,115615349,,0.0,0.0,0.0,0.0,0.0,0.0,0.0,0.0,0.0,0.0,0.0,0.0,0.0,-0.012049921788275242,-0.0036977482959628105,0.005101301707327366,0.0,0.0,0.0,0.0,0.0,0.0,0.0,0.0,0.0,-0.08974359184503555,0.10230769217014313,10.015384674072266,0.0,0.0,0.0,0.0,0.0,0.0,0.0,0.0,0.0
1646243488.1180668,6872,1646243488,117797244,,0.0,0.0,0.0,0.0,0.0,0.0,0.0,0.0,0.0,0.0,0.0,0.0,0.0,-0.0067235990427434444,0.006954895332455635,-0.01939977891743183,0.0,0.0,0.0,0.0,0.0,0.0,0.0,0.0,0.0,0.06102564185857773,0.1471794843673706,9.986666679382324,0.0,0.0,0.0,0.0,0.0,0.0,0.0,0.0,0.0
1646243488.1205773,6873,1646243488,120026385,,0.0,0.0,0.0,0.0,0.0,0.0,0.0,0.0,0.0,0.0,0.0,0.0,0.0,-0.017376242205500603,0.013346482068300247,0.018949739634990692,0.0,0.0,0.0,0.0,0.0,0.0,0.0,0.0,0.0,0.05025641247630119,-0.08435897529125214,9.633076667785645,0.0,0.0,0.0,0.0,0.0,0.0,0.0,0.0,0.0
1646243488.122812,6874,1646243488,122250638,,0.0,0.0,0.0,0.0,0.0,0.0,0.0,0.0,0.0,0.0,0.0,0.0,0.0,0.018842745572328568,0.0026938372757285833,-0.005551342852413654,0.0,0.0,0.0,0.0,0.0,0.0,0.0,0.0,0.0,-0.20102564990520477,0.26384615898132324,10.318717956542969,0.0,0.0,0.0,0.0,0.0,0.0,0.0,0.0,0.0
1646243488.124801,6875,1646243488,124483740,,0.0,0.0,0.0,0.0,0.0,0.0,0.0,0.0,0.0,0.0,0.0,0.0,0.0,-0.01844150573015213,-0.0036977482959628105,-0.01939977891743183,0.0,0.0,0.0,0.0,0.0,0.0,0.0,0.0,0.0,-0.11128205060958862,0.05205128341913223,10.033333778381348,0.0,0.0,0.0,0.0,0.0,0.0,0.0,0.0,0.0
1646243488.1269953,6876,1646243488,126711143,,0.0,0.0,0.0,0.0,0.0,0.0,0.0,0.0,0.0,0.0,0.0,0.0,0.0,-0.0067235990427434444,0.0026938372757285833,-0.0076818703673779964,0.0,0.0,0.0,0.0,0.0,0.0,0.0,0.0,0.0,-0.032307691872119904,0.2441025674343109,9.995640754699707,0.0,0.0,0.0,0.0,0.0,0.0,0.0,0.0,0.0
1646243488.1292257,6877,1646243488,128955090,,0.0,0.0,0.0,0.0,0.0,0.0,0.0,0.0,0.0,0.0,0.0,0.0,0.0,-0.013115186244249344,0.011215953156352043,0.028537116944789886,0.0,0.0,0.0,0.0,0.0,0.0,0.0,0.0,0.0,0.1148717999458313,-0.1651282161474228,9.466153144836426,0.0,0.0,0.0,0.0,0.0,0.0,0.0,0.0,0.0
1646243488.1315498,6878,1646243488,131203648,,0.0,0.0,0.0,0.0,0.0,0.0,0.0,0.0,0.0,0.0,0.0,0.0,0.0,-0.022702563554048538,0.0026938372757285833,0.004036037251353264,0.0,0.0,0.0,0.0,0.0,0.0,0.0,0.0,0.0,0.23692308366298676,0.31051284074783325,9.591794967651367,0.0,0.0,0.0,0.0,0.0,0.0,0.0,0.0,0.0
1646243488.1338625,6879,1646243488,133427347,,0.0,0.0,0.0,0.0,0.0,0.0,0.0,0.0,0.0,0.0,0.0,0.0,0.0,-0.037616267800331116,-0.0005019548698328435,-0.02046504244208336,0.0,0.0,0.0,0.0,0.0,0.0,0.0,0.0,0.0,0.2656410336494446,0.05205128341913223,9.780256271362305,0.0,0.0,0.0,0.0,0.0,0.0,0.0,0.0,0.0
1646243488.1361427,6880,1646243488,135651764,,0.0,0.0,0.0,0.0,0.0,0.0,0.0,0.0,0.0,0.0,0.0,0.0,0.0,-0.014180450700223446,0.0026938372757285833,0.022145532071590424,0.0,0.0,0.0,0.0,0.0,0.0,0.0,0.0,0.0,0.08974359184503555,-0.26384615898132324,9.545127868652344,0.0,0.0,0.0,0.0,0.0,0.0,0.0,0.0,0.0
1646243488.1385338,6881,1646243488,137962581,,0.0,0.0,0.0,0.0,0.0,0.0,0.0,0.0,0.0,0.0,0.0,0.0,0.0,-0.028028886765241623,0.01441174652427435,-0.018334513530135155,0.0,0.0,0.0,0.0,0.0,0.0,0.0,0.0,0.0,-0.1705128252506256,0.18666666746139526,10.099743843078613,0.0,0.0,0.0,0.0,0.0,0.0,0.0,0.0,0.0
1646243488.1406994,6882,1646243488,140326432,,0.0,0.0,0.0,0.0,0.0,0.0,0.0,0.0,0.0,0.0,0.0,0.0,0.0,-0.01844150573015213,0.006954895332455635,0.009362359531223774,0.0,0.0,0.0,0.0,0.0,0.0,0.0,0.0,0.0,-0.026923077180981636,0.11666666716337204,9.780256271362305,0.0,0.0,0.0,0.0,0.0,0.0,0.0,0.0,0.0
1646243488.1430328,6883,1646243488,142518824,,0.0,0.0,0.0,0.0,0.0,0.0,0.0,0.0,0.0,0.0,0.0,0.0,0.0,-0.0077888634987175465,0.009085424244403839,0.005101301707327366,0.0,0.0,0.0,0.0,0.0,0.0,0.0,0.0,0.0,-0.10051282495260239,0.22794872522354126,9.983077049255371,0.0,0.0,0.0,0.0,0.0,0.0,0.0,0.0,0.0
1646243488.1452801,6884,1646243488,144770338,,0.0,0.0,0.0,0.0,0.0,0.0,0.0,0.0,0.0,0.0,0.0,0.0,0.0,-0.016310978680849075,-0.007958807051181793,-0.01087766420096159,0.0,0.0,0.0,0.0,0.0,0.0,0.0,0.0,0.0,0.0735897421836853,-0.22615385055541992,9.59538459777832,0.0,0.0,0.0,0.0,0.0,0.0,0.0,0.0,0.0
1646243488.1472144,6885,1646243488,146972088,,0.0,0.0,0.0,0.0,0.0,0.0,0.0,0.0,0.0,0.0,0.0,0.0,0.0,-0.013115186244249344,0.00588963134214282,0.00723183061927557,0.0,0.0,0.0,0.0,0.0,0.0,0.0,0.0,0.0,0.4056410491466522,0.1238461583852768,9.462564468383789,0.0,0.0,0.0,0.0,0.0,0.0,0.0,0.0,0.0
1646243488.1494899,6886,1646243488,149204838,,0.0,0.0,0.0,0.0,0.0,0.0,0.0,0.0,0.0,0.0,0.0,0.0,0.0,0.001798515673726797,-0.007958807051181793,0.01255815289914608,0.0,0.0,0.0,0.0,0.0,0.0,0.0,0.0,0.0,-0.001794871874153614,0.16871795058250427,10.018974304199219,0.0,0.0,0.0,0.0,0.0,0.0,0.0,0.0,0.0
1646243488.15291,6887,1646243488,151491761,,0.0,0.0,0.0,0.0,0.0,0.0,0.0,0.0,0.0,0.0,0.0,0.0,0.0,0.011385894380509853,-0.018611449748277664,0.005101301707327366,0.0,0.0,0.0,0.0,0.0,0.0,0.0,0.0,0.0,0.07897436618804932,-0.2710256576538086,9.523589134216309,0.0,0.0,0.0,0.0,0.0,0.0,0.0,0.0,0.0
1646243488.1540732,6888,1646243488,153732348,,0.0,0.0,0.0,0.0,0.0,0.0,0.0,0.0,0.0,0.0,0.0,0.0,0.0,-0.020572034642100334,0.01441174652427435,-0.00022502047067973763,0.0,0.0,0.0,0.0,0.0,0.0,0.0,0.0,0.0,0.08615384995937347,0.20461538434028625,9.618718147277832,0.0,0.0,0.0,0.0,0.0,0.0,0.0,0.0,0.0
1646243488.156362,6889,1646243488,155973672,,0.0,0.0,0.0,0.0,0.0,0.0,0.0,0.0,0.0,0.0,0.0,0.0,0.0,-0.0067235990427434444,-0.02393777295947075,0.00723183061927557,0.0,0.0,0.0,0.0,0.0,0.0,0.0,0.0,0.0,0.24948717653751373,-0.3266666829586029,9.281281471252441,0.0,0.0,0.0,0.0,0.0,0.0,0.0,0.0,0.0
1646243488.158685,6890,1646243488,158270328,,0.0,0.0,0.0,0.0,0.0,0.0,0.0,0.0,0.0,0.0,0.0,0.0,0.0,0.00712483748793602,0.01973806880414486,0.01575394533574581,0.0,0.0,0.0,0.0,0.0,0.0,0.0,0.0,0.0,0.2387179583311081,0.17589744925498962,9.579231262207031,0.0,0.0,0.0,0.0,0.0,0.0,0.0,0.0,0.0
1646243488.1608284,6891,1646243488,160518136,,0.0,0.0,0.0,0.0,0.0,0.0,0.0,0.0,0.0,0.0,0.0,0.0,0.0,0.0007332512177526951,-0.0015672193840146065,-0.0162039864808321,0.0,0.0,0.0,0.0,0.0,0.0,0.0,0.0,0.0,0.06282051652669907,-0.025128206238150597,9.844871520996094,0.0,0.0,0.0,0.0,0.0,0.0,0.0,0.0,0.0
1646243488.1630805,6892,1646243488,162752134,,0.0,0.0,0.0,0.0,0.0,0.0,0.0,0.0,0.0,0.0,0.0,0.0,0.0,-0.01844150573015213,0.013346482068300247,0.00723183061927557,0.0,0.0,0.0,0.0,0.0,0.0,0.0,0.0,0.0,-0.09333333373069763,-0.3392307758331299,9.636667251586914,0.0,0.0,0.0,0.0,0.0,0.0,0.0,0.0,0.0
1646243488.1653175,6893,1646243488,164973632,,0.0,0.0,0.0,0.0,0.0,0.0,0.0,0.0,0.0,0.0,0.0,0.0,0.0,-0.0035278063733130693,0.012281217612326145,0.0019055086886510253,0.0,0.0,0.0,0.0,0.0,0.0,0.0,0.0,0.0,-0.15256410837173462,0.12205128371715546,10.162564277648926,0.0,0.0,0.0,0.0,0.0,0.0,0.0,0.0,0.0
1646243488.1675735,6894,1646243488,167191122,,0.0,0.0,0.0,0.0,0.0,0.0,0.0,0.0,0.0,0.0,0.0,0.0,0.0,-0.0035278063733130693,-0.021807242184877396,-0.008747135289013386,0.0,0.0,0.0,0.0,0.0,0.0,0.0,0.0,0.0,-0.048461541533470154,-0.15076923370361328,9.683333396911621,0.0,0.0,0.0,0.0,0.0,0.0,0.0,0.0,0.0
1646243488.1697168,6895,1646243488,169424222,,0.0,0.0,0.0,0.0,0.0,0.0,0.0,0.0,0.0,0.0,0.0,0.0,0.0,0.006059573031961918,0.021868597716093063,0.009362359531223774,0.0,0.0,0.0,0.0,0.0,0.0,0.0,0.0,0.0,0.014358974993228912,0.1705128252506256,9.633076667785645,0.0,0.0,0.0,0.0,0.0,0.0,0.0,0.0,0.0
1646243488.172093,6896,1646243488,171709159,,0.0,0.0,0.0,0.0,0.0,0.0,0.0,0.0,0.0,0.0,0.0,0.0,0.0,0.012451158836483955,0.004824366886168718,-0.00022502047067973763,0.0,0.0,0.0,0.0,0.0,0.0,0.0,0.0,0.0,0.21000000834465027,-0.4541025757789612,9.471538543701172,0.0,0.0,0.0,0.0,0.0,0.0,0.0,0.0,0.0
1646243488.174256,6897,1646243488,174033915,,0.0,0.0,0.0,0.0,0.0,0.0,0.0,0.0,0.0,0.0,0.0,0.0,0.0,-0.005658335518091917,0.0005633095279335976,-0.0034208132419735193,0.0,0.0,0.0,0.0,0.0,0.0,0.0,0.0,0.0,0.07179487496614456,0.1471794843673706,9.482307434082031,0.0,0.0,0.0,0.0,0.0,0.0,0.0,0.0,0.0
1646243488.1766078,6898,1646243488,176249321,,0.0,0.0,0.0,0.0,0.0,0.0,0.0,0.0,0.0,0.0,0.0,0.0,0.0,-0.0035278063733130693,-0.0047630127519369125,0.005101301707327366,0.0,0.0,0.0,0.0,0.0,0.0,0.0,0.0,0.0,0.01794871874153614,-0.47025641798973083,9.55051326751709,0.0,0.0,0.0,0.0,0.0,0.0,0.0,0.0,0.0
1646243488.1787963,6899,1646243488,178461608,,0.0,0.0,0.0,0.0,0.0,0.0,0.0,0.0,0.0,0.0,0.0,0.0,0.0,0.019908009096980095,0.01973806880414486,0.01575394533574581,0.0,0.0,0.0,0.0,0.0,0.0,0.0,0.0,0.0,-0.005384615622460842,-0.21897436678409576,9.712051391601562,0.0,0.0,0.0,0.0,0.0,0.0,0.0,0.0,0.0
1646243488.1810029,6900,1646243488,180617359,,0.0,0.0,0.0,0.0,0.0,0.0,0.0,0.0,0.0,0.0,0.0,0.0,0.0,-0.017376242205500603,-0.025003038346767426,-0.0034208132419735193,0.0,0.0,0.0,0.0,0.0,0.0,0.0,0.0,0.0,-0.21717949211597443,0.10410256683826447,9.927435874938965,0.0,0.0,0.0,0.0,0.0,0.0,0.0,0.0,0.0
1646243488.183345,6901,1646243488,182889542,,0.0,0.0,0.0,0.0,0.0,0.0,0.0,0.0,0.0,0.0,0.0,0.0,0.0,0.02843012474477291,0.011215953156352043,0.014688681811094284,0.0,0.0,0.0,0.0,0.0,0.0,0.0,0.0,0.0,0.19384616613388062,-0.4128205180168152,9.557692527770996,0.0,0.0,0.0,0.0,0.0,0.0,0.0,0.0,0.0
1646243488.1854174,6902,1646243488,185084096,,0.0,0.0,0.0,0.0,0.0,0.0,0.0,0.0,0.0,0.0,0.0,0.0,0.0,0.00925536546856165,0.0026938372757285833,-0.015138722956180573,0.0,0.0,0.0,0.0,0.0,0.0,0.0,0.0,0.0,-0.03769230842590332,-0.005384615622460842,9.9399995803833,0.0,0.0,0.0,0.0,0.0,0.0,0.0,0.0,0.0
1646243488.1877584,6903,1646243488,187338852,,0.0,0.0,0.0,0.0,0.0,0.0,0.0,0.0,0.0,0.0,0.0,0.0,0.0,0.011385894380509853,-0.018611449748277664,-0.013008194044232368,0.0,0.0,0.0,0.0,0.0,0.0,0.0,0.0,0.0,0.16692309081554413,-0.40205129981040955,9.604358673095703,0.0,0.0,0.0,0.0,0.0,0.0,0.0,0.0,0.0
1646243488.1899931,6904,1646243488,189614167,,0.0,0.0,0.0,0.0,0.0,0.0,0.0,0.0,0.0,0.0,0.0,0.0,0.0,0.014581688679754734,0.00588963134214282,0.00723183061927557,0.0,0.0,0.0,0.0,0.0,0.0,0.0,0.0,0.0,-0.05564102530479431,-0.15435898303985596,10.087179183959961,0.0,0.0,0.0,0.0,0.0,0.0,0.0,0.0,0.0
1646243488.1921732,6905,1646243488,191833927,,0.0,0.0,0.0,0.0,0.0,0.0,0.0,0.0,0.0,0.0,0.0,0.0,0.0,0.03908276557922363,-0.0036977482959628105,-0.01407345850020647,0.0,0.0,0.0,0.0,0.0,0.0,0.0,0.0,0.0,-0.14000000059604645,-0.028717949986457825,9.875385284423828,0.0,0.0,0.0,0.0,0.0,0.0,0.0,0.0,0.0
1646243488.1954432,6906,1646243488,194065498,,0.0,0.0,0.0,0.0,0.0,0.0,0.0,0.0,0.0,0.0,0.0,0.0,0.0,0.023103805258870125,-0.015415656380355358,0.006166566163301468,0.0,0.0,0.0,0.0,0.0,0.0,0.0,0.0,0.0,0.13641025125980377,-0.12025640904903412,9.554102897644043,0.0,0.0,0.0,0.0,0.0,0.0,0.0,0.0,0.0
1646243488.1965365,6907,1646243488,196268401,,0.0,0.0,0.0,0.0,0.0,0.0,0.0,0.0,0.0,0.0,0.0,0.0,0.0,0.018842745572328568,0.009085424244403839,0.0008402442326769233,0.0,0.0,0.0,0.0,0.0,0.0,0.0,0.0,0.0,-0.003589743748307228,0.10230769217014313,9.983077049255371,0.0,0.0,0.0,0.0,0.0,0.0,0.0,0.0,0.0
1646243488.1988344,6908,1646243488,198500191,,0.0,0.0,0.0,0.0,0.0,0.0,0.0,0.0,0.0,0.0,0.0,0.0,0.0,0.04227856546640396,0.015477010980248451,0.013623417355120182,0.0,0.0,0.0,0.0,0.0,0.0,0.0,0.0,0.0,0.12025640904903412,-0.32307693362236023,9.489486694335938,0.0,0.0,0.0,0.0,0.0,0.0,0.0,0.0,0.0
1646243488.2011068,6909,1646243488,200781635,,0.0,0.0,0.0,0.0,0.0,0.0,0.0,0.0,0.0,0.0,0.0,0.0,0.0,0.01777748018503189,0.0026938372757285833,-0.028987158089876175,0.0,0.0,0.0,0.0,0.0,0.0,0.0,0.0,0.0,-0.05564102530479431,0.012564103119075298,9.93820571899414,0.0,0.0,0.0,0.0,0.0,0.0,0.0,0.0,0.0
1646243488.20341,6910,1646243488,203035638,,0.0,0.0,0.0,0.0,0.0,0.0,0.0,0.0,0.0,0.0,0.0,0.0,0.0,0.008190101943910122,-0.026068301871418953,-0.008747135289013386,0.0,0.0,0.0,0.0,0.0,0.0,0.0,0.0,0.0,-0.13102564215660095,-0.17230769991874695,10.166154861450195,0.0,0.0,0.0,0.0,0.0,0.0,0.0,0.0,0.0
1646243488.2056637,6911,1646243488,205255678,,0.0,0.0,0.0,0.0,0.0,0.0,0.0,0.0,0.0,0.0,0.0,0.0,0.0,0.03162591904401779,-0.0026324838399887085,-0.0162039864808321,0.0,0.0,0.0,0.0,0.0,0.0,0.0,0.0,0.0,-0.08435897529125214,0.14179487526416779,10.311538696289062,0.0,0.0,0.0,0.0,0.0,0.0,0.0,0.0,0.0
1646243488.2079237,6912,1646243488,207459449,,0.0,0.0,0.0,0.0,0.0,0.0,0.0,0.0,0.0,0.0,0.0,0.0,0.0,0.023103805258870125,0.0037591024301946163,-0.024726100265979767,0.0,0.0,0.0,0.0,0.0,0.0,0.0,0.0,0.0,-0.11846154183149338,-0.03769230842590332,9.975897789001465,0.0,0.0,0.0,0.0,0.0,0.0,0.0,0.0,0.0
1646243488.2101023,6913,1646243488,209677739,,0.0,0.0,0.0,0.0,0.0,0.0,0.0,0.0,0.0,0.0,0.0,0.0,0.0,0.0103206317871809,-0.02393777295947075,-0.01087766420096159,0.0,0.0,0.0,0.0,0.0,0.0,0.0,0.0,0.0,0.025128206238150597,-0.06641025841236115,9.878974914550781,0.0,0.0,0.0,0.0,0.0,0.0,0.0,0.0,0.0
1646243488.2123637,6914,1646243488,211905644,,0.0,0.0,0.0,0.0,0.0,0.0,0.0,0.0,0.0,0.0,0.0,0.0,0.0,0.011385894380509853,-0.0026324838399887085,0.0008402442326769233,0.0,0.0,0.0,0.0,0.0,0.0,0.0,0.0,0.0,-0.12205128371715546,0.05923077091574669,10.062051773071289,0.0,0.0,0.0,0.0,0.0,0.0,0.0,0.0,0.0
1646243488.2146358,6915,1646243488,214121590,,0.0,0.0,0.0,0.0,0.0,0.0,0.0,0.0,0.0,0.0,0.0,0.0,0.0,0.014581688679754734,-0.02713356725871563,0.013623417355120182,0.0,0.0,0.0,0.0,0.0,0.0,0.0,0.0,0.0,-0.22794872522354126,-0.1974359005689621,10.013589859008789,0.0,0.0,0.0,0.0,0.0,0.0,0.0,0.0,0.0
1646243488.216884,6916,1646243488,216436830,,0.0,0.0,0.0,0.0,0.0,0.0,0.0,0.0,0.0,0.0,0.0,0.0,0.0,0.00712483748793602,0.0026938372757285833,-0.009812399744987488,0.0,0.0,0.0,0.0,0.0,0.0,0.0,0.0,0.0,-0.13641025125980377,0.15076923370361328,9.95435905456543,0.0,0.0,0.0,0.0,0.0,0.0,0.0,0.0,0.0
1646243488.2191215,6917,1646243488,218691731,,0.0,0.0,0.0,0.0,0.0,0.0,0.0,0.0,0.0,0.0,0.0,0.0,0.0,0.016712216660380363,-0.0015672193840146065,-0.006616605911403894,0.0,0.0,0.0,0.0,0.0,0.0,0.0,0.0,0.0,0.10051282495260239,-0.27282050251960754,9.717435836791992,0.0,0.0,0.0,0.0,0.0,0.0,0.0,0.0,0.0
1646243488.2213612,6918,1646243488,220988040,,0.0,0.0,0.0,0.0,0.0,0.0,0.0,0.0,0.0,0.0,0.0,0.0,0.0,0.004994308575987816,0.006954895332455635,0.00723183061927557,0.0,0.0,0.0,0.0,0.0,0.0,0.0,0.0,0.0,0.1238461583852768,0.09333333373069763,9.647436141967773,0.0,0.0,0.0,0.0,0.0,0.0,0.0,0.0,0.0
1646243488.223619,6919,1646243488,223261937,,0.0,0.0,0.0,0.0,0.0,0.0,0.0,0.0,0.0,0.0,0.0,0.0,0.0,0.008190101943910122,-0.005828278139233589,0.002970772795379162,0.0,0.0,0.0,0.0,0.0,0.0,0.0,0.0,0.0,0.18666666746139526,-0.1974359005689621,9.819743156433105,0.0,0.0,0.0,0.0,0.0,0.0,0.0,0.0,0.0
1646243488.225987,6920,1646243488,225488476,,0.0,0.0,0.0,0.0,0.0,0.0,0.0,0.0,0.0,0.0,0.0,0.0,0.0,0.03162591904401779,-0.013285127468407154,0.0008402442326769233,0.0,0.0,0.0,0.0,0.0,0.0,0.0,0.0,0.0,0.2064102590084076,-0.20102564990520477,9.638461112976074,0.0,0.0,0.0,0.0,0.0,0.0,0.0,0.0,0.0
1646243488.228054,6921,1646243488,227694455,,0.0,0.0,0.0,0.0,0.0,0.0,0.0,0.0,0.0,0.0,0.0,0.0,0.0,0.008190101943910122,0.010150688700377941,-0.0076818703673779964,0.0,0.0,0.0,0.0,0.0,0.0,0.0,0.0,0.0,-0.20102564990520477,0.24948717653751373,10.022564888000488,0.0,0.0,0.0,0.0,0.0,0.0,0.0,0.0,0.0
1646243488.230715,6922,1646243488,229917538,,0.0,0.0,0.0,0.0,0.0,0.0,0.0,0.0,0.0,0.0,0.0,0.0,0.0,0.008190101943910122,-0.006893542595207691,0.02747185342013836,0.0,0.0,0.0,0.0,0.0,0.0,0.0,0.0,0.0,-0.10051282495260239,-0.13102564215660095,9.9399995803833,0.0,0.0,0.0,0.0,0.0,0.0,0.0,0.0,0.0
1646243488.233017,6923,1646243488,232159980,,0.0,0.0,0.0,0.0,0.0,0.0,0.0,0.0,0.0,0.0,0.0,0.0,0.0,0.0103206317871809,-0.009024071507155895,-0.028987158089876175,0.0,0.0,0.0,0.0,0.0,0.0,0.0,0.0,0.0,0.07897436618804932,0.22435897588729858,9.970513343811035,0.0,0.0,0.0,0.0,0.0,0.0,0.0,0.0,0.0
1646243488.2347994,6924,1646243488,234404995,,0.0,0.0,0.0,0.0,0.0,0.0,0.0,0.0,0.0,0.0,0.0,0.0,0.0,0.02097327448427677,0.0005633095279335976,-0.015138722956180573,0.0,0.0,0.0,0.0,0.0,0.0,0.0,0.0,0.0,0.18487180769443512,-0.05384615436196327,9.68871784210205,0.0,0.0,0.0,0.0,0.0,0.0,0.0,0.0,0.0
1646243488.2383552,6925,1646243488,236607795,,0.0,0.0,0.0,0.0,0.0,0.0,0.0,0.0,0.0,0.0,0.0,0.0,0.0,0.001798515673726797,-0.0026324838399887085,-0.006616605911403894,0.0,0.0,0.0,0.0,0.0,0.0,0.0,0.0,0.0,0.17769230902194977,0.15794873237609863,9.358461380004883,0.0,0.0,0.0,0.0,0.0,0.0,0.0,0.0,0.0
1646243488.239217,6926,1646243488,238931962,,0.0,0.0,0.0,0.0,0.0,0.0,0.0,0.0,0.0,0.0,0.0,0.0,0.0,0.019908009096980095,-0.01967671327292919,-0.009812399744987488,0.0,0.0,0.0,0.0,0.0,0.0,0.0,0.0,0.0,0.21897436678409576,-0.1974359005689621,9.55589771270752,0.0,0.0,0.0,0.0,0.0,0.0,0.0,0.0,0.0
1646243488.2415621,6927,1646243488,241150938,,0.0,0.0,0.0,0.0,0.0,0.0,0.0,0.0,0.0,0.0,0.0,0.0,0.0,0.006059573031961918,-0.02393777295947075,0.01681920886039734,0.0,0.0,0.0,0.0,0.0,0.0,0.0,0.0,0.0,0.15794873237609863,0.001794871874153614,9.773077011108398,0.0,0.0,0.0,0.0,0.0,0.0,0.0,0.0,0.0
1646243488.2437396,6928,1646243488,243372712,,0.0,0.0,0.0,0.0,0.0,0.0,0.0,0.0,0.0,0.0,0.0,0.0,0.0,0.011385894380509853,-0.013285127468407154,-0.015138722956180573,0.0,0.0,0.0,0.0,0.0,0.0,0.0,0.0,0.0,-0.05923077091574669,0.2153846174478531,9.931025505065918,0.0,0.0,0.0,0.0,0.0,0.0,0.0,0.0,0.0
1646243488.2459154,6929,1646243488,245568561,,0.0,0.0,0.0,0.0,0.0,0.0,0.0,0.0,0.0,0.0,0.0,0.0,0.0,0.027364861220121384,0.0005633095279335976,-0.0012902843300253153,0.0,0.0,0.0,0.0,0.0,0.0,0.0,0.0,0.0,-0.17230769991874695,-0.11128205060958862,9.832307815551758,0.0,0.0,0.0,0.0,0.0,0.0,0.0,0.0,0.0
1646243488.2482288,6930,1646243488,247844532,,0.0,0.0,0.0,0.0,0.0,0.0,0.0,0.0,0.0,0.0,0.0,0.0,0.0,0.014581688679754734,0.01654227450489998,-0.015138722956180573,0.0,0.0,0.0,0.0,0.0,0.0,0.0,0.0,0.0,0.19564102590084076,0.3176923394203186,9.634871482849121,0.0,0.0,0.0,0.0,0.0,0.0,0.0,0.0,0.0
1646243488.2504919,6931,1646243488,250042906,,0.0,0.0,0.0,0.0,0.0,0.0,0.0,0.0,0.0,0.0,0.0,0.0,0.0,0.003929044120013714,0.0016285729361698031,0.018949739634990692,0.0,0.0,0.0,0.0,0.0,0.0,0.0,0.0,0.0,0.11128205060958862,-0.21897436678409576,9.679743766784668,0.0,0.0,0.0,0.0,0.0,0.0,0.0,0.0,0.0
1646243488.252804,6932,1646243488,252359093,,0.0,0.0,0.0,0.0,0.0,0.0,0.0,0.0,0.0,0.0,0.0,0.0,0.0,-0.012049921788275242,0.004824366886168718,0.004036037251353264,0.0,0.0,0.0,0.0,0.0,0.0,0.0,0.0,0.0,-0.05923077091574669,-0.14000000059604645,9.663589477539062,0.0,0.0,0.0,0.0,0.0,0.0,0.0,0.0,0.0
1646243488.2550037,6933,1646243488,254580908,,0.0,0.0,0.0,0.0,0.0,0.0,0.0,0.0,0.0,0.0,0.0,0.0,0.0,0.006059573031961918,0.004824366886168718,-0.009812399744987488,0.0,0.0,0.0,0.0,0.0,0.0,0.0,0.0,0.0,-0.07179487496614456,0.4038461744785309,10.033333778381348,0.0,0.0,0.0,0.0,0.0,0.0,0.0,0.0,0.0
1646243488.2571359,6934,1646243488,256822095,,0.0,0.0,0.0,0.0,0.0,0.0,0.0,0.0,0.0,0.0,0.0,0.0,0.0,0.004994308575987816,0.0016285729361698031,-0.015138722956180573,0.0,0.0,0.0,0.0,0.0,0.0,0.0,0.0,0.0,0.0735897421836853,0.025128206238150597,9.631281852722168,0.0,0.0,0.0,0.0,0.0,0.0,0.0,0.0,0.0
1646243488.2596207,6935,1646243488,259072721,,0.0,0.0,0.0,0.0,0.0,0.0,0.0,0.0,0.0,0.0,0.0,0.0,0.0,-0.01098465733230114,-0.03352515026926994,-0.02046504244208336,0.0,0.0,0.0,0.0,0.0,0.0,0.0,0.0,0.0,0.25128206610679626,0.18487180769443512,9.712051391601562,0.0,0.0,0.0,0.0,0.0,0.0,0.0,0.0,0.0
1646243488.2617648,6936,1646243488,261322852,,0.0,0.0,0.0,0.0,0.0,0.0,0.0,0.0,0.0,0.0,0.0,0.0,0.0,0.019908009096980095,-0.0047630127519369125,-0.008747135289013386,0.0,0.0,0.0,0.0,0.0,0.0,0.0,0.0,0.0,0.23512820899486542,-0.2530769407749176,9.2615385055542,0.0,0.0,0.0,0.0,0.0,0.0,0.0,0.0,0.0
1646243488.2640157,6937,1646243488,263526947,,0.0,0.0,0.0,0.0,0.0,0.0,0.0,0.0,0.0,0.0,0.0,0.0,0.0,0.011385894380509853,0.017607539892196655,-0.028987158089876175,0.0,0.0,0.0,0.0,0.0,0.0,0.0,0.0,0.0,0.3356410562992096,0.3733333349227905,9.61153793334961,0.0,0.0,0.0,0.0,0.0,0.0,0.0,0.0,0.0
1646243488.266135,6938,1646243488,265724371,,0.0,0.0,0.0,0.0,0.0,0.0,0.0,0.0,0.0,0.0,0.0,0.0,0.0,-0.019506771117448807,-0.01648092083632946,-0.02046504244208336,0.0,0.0,0.0,0.0,0.0,0.0,0.0,0.0,0.0,0.1382051259279251,-0.09871795028448105,9.460768699645996,0.0,0.0,0.0,0.0,0.0,0.0,0.0,0.0,0.0
1646243488.2683907,6939,1646243488,267923071,,0.0,0.0,0.0,0.0,0.0,0.0,0.0,0.0,0.0,0.0,0.0,0.0,0.0,0.00925536546856165,-0.0036977482959628105,0.002970772795379162,0.0,0.0,0.0,0.0,0.0,0.0,0.0,0.0,0.0,-0.24230769276618958,0.4271794855594635,10.132050514221191,0.0,0.0,0.0,0.0,0.0,0.0,0.0,0.0,0.0
1646243488.270501,6940,1646243488,270149867,,0.0,0.0,0.0,0.0,0.0,0.0,0.0,0.0,0.0,0.0,0.0,0.0,0.0,-0.01844150573015213,0.013346482068300247,0.01681920886039734,0.0,0.0,0.0,0.0,0.0,0.0,0.0,0.0,0.0,0.20102564990520477,-0.023333333432674408,9.331538200378418,0.0,0.0,0.0,0.0,0.0,0.0,0.0,0.0,0.0
1646243488.2726505,6941,1646243488,272360640,,0.0,0.0,0.0,0.0,0.0,0.0,0.0,0.0,0.0,0.0,0.0,0.0,0.0,-0.0077888634987175465,-0.014350391924381256,-0.0023555487859994173,0.0,0.0,0.0,0.0,0.0,0.0,0.0,0.0,0.0,0.01794871874153614,0.07179487496614456,9.703076362609863,0.0,0.0,0.0,0.0,0.0,0.0,0.0,0.0,0.0
1646243488.2750998,6942,1646243488,274574932,,0.0,0.0,0.0,0.0,0.0,0.0,0.0,0.0,0.0,0.0,0.0,0.0,0.0,-0.0003320134710520506,0.008020159788429737,-0.03324821963906288,0.0,0.0,0.0,0.0,0.0,0.0,0.0,0.0,0.0,0.08974359184503555,0.26923078298568726,9.771282196044922,0.0,0.0,0.0,0.0,0.0,0.0,0.0,0.0,0.0
1646243488.2781842,6943,1646243488,276833468,,0.0,0.0,0.0,0.0,0.0,0.0,0.0,0.0,0.0,0.0,0.0,0.0,0.0,-0.009919392876327038,-0.0026324838399887085,-0.008747135289013386,0.0,0.0,0.0,0.0,0.0,0.0,0.0,0.0,0.0,-0.07717949151992798,0.05564102530479431,9.871794700622559,0.0,0.0,0.0,0.0,0.0,0.0,0.0,0.0,0.0
1646243488.2805858,6944,1646243488,279046912,,0.0,0.0,0.0,0.0,0.0,0.0,0.0,0.0,0.0,0.0,0.0,0.0,0.0,-0.015245715156197548,0.0026938372757285833,-0.0162039864808321,0.0,0.0,0.0,0.0,0.0,0.0,0.0,0.0,0.0,0.005384615622460842,0.41641026735305786,9.968717575073242,0.0,0.0,0.0,0.0,0.0,0.0,0.0,0.0,0.0
1646243488.2816844,6945,1646243488,281268917,,0.0,0.0,0.0,0.0,0.0,0.0,0.0,0.0,0.0,0.0,0.0,0.0,0.0,0.012451158836483955,-0.007958807051181793,0.002970772795379162,0.0,0.0,0.0,0.0,0.0,0.0,0.0,0.0,0.0,-0.06461538374423981,0.2387179583311081,9.826923370361328,0.0,0.0,0.0,0.0,0.0,0.0,0.0,0.0,0.0
1646243488.2838948,6946,1646243488,283489530,,0.0,0.0,0.0,0.0,0.0,0.0,0.0,0.0,0.0,0.0,0.0,0.0,0.0,-0.020572034642100334,-0.017546184360980988,-0.0012902843300253153,0.0,0.0,0.0,0.0,0.0,0.0,0.0,0.0,0.0,0.1974359005689621,0.2746153771877289,9.852051734924316,0.0,0.0,0.0,0.0,0.0,0.0,0.0,0.0,0.0
1646243488.286232,6947,1646243488,285736899,,0.0,0.0,0.0,0.0,0.0,0.0,0.0,0.0,0.0,0.0,0.0,0.0,0.0,-0.008854128420352936,0.011215953156352043,0.008297095075249672,0.0,0.0,0.0,0.0,0.0,0.0,0.0,0.0,0.0,0.2297435998916626,0.046666666865348816,9.24179458618164,0.0,0.0,0.0,0.0,0.0,0.0,0.0,0.0,0.0
1646243488.2883704,6948,1646243488,287971341,,0.0,0.0,0.0,0.0,0.0,0.0,0.0,0.0,0.0,0.0,0.0,0.0,0.0,-0.030159417539834976,0.009085424244403839,-0.0023555487859994173,0.0,0.0,0.0,0.0,0.0,0.0,0.0,0.0,0.0,0.0735897421836853,0.32846155762672424,9.934615135192871,0.0,0.0,0.0,0.0,0.0,0.0,0.0,0.0,0.0
1646243488.290653,6949,1646243488,290230562,,0.0,0.0,0.0,0.0,0.0,0.0,0.0,0.0,0.0,0.0,0.0,0.0,0.0,-0.01098465733230114,0.006954895332455635,-0.006616605911403894,0.0,0.0,0.0,0.0,0.0,0.0,0.0,0.0,0.0,-0.003589743748307228,0.04307692497968674,9.805384635925293,0.0,0.0,0.0,0.0,0.0,0.0,0.0,0.0,0.0
1646243488.292907,6950,1646243488,292502571,,0.0,0.0,0.0,0.0,0.0,0.0,0.0,0.0,0.0,0.0,0.0,0.0,0.0,-0.01098465733230114,0.03039071336388588,0.024276060983538628,0.0,0.0,0.0,0.0,0.0,0.0,0.0,0.0,0.0,-0.0735897421836853,0.5402564406394958,10.049487113952637,0.0,0.0,0.0,0.0,0.0,0.0,0.0,0.0,0.0
1646243488.2950869,6951,1646243488,294784155,,0.0,0.0,0.0,0.0,0.0,0.0,0.0,0.0,0.0,0.0,0.0,0.0,0.0,-0.01844150573015213,0.0026938372757285833,0.014688681811094284,0.0,0.0,0.0,0.0,0.0,0.0,0.0,0.0,0.0,-0.17230769991874695,0.37512820959091187,10.178717613220215,0.0,0.0,0.0,0.0,0.0,0.0,0.0,0.0,0.0
1646243488.2976646,6952,1646243488,297114760,,0.0,0.0,0.0,0.0,0.0,0.0,0.0,0.0,0.0,0.0,0.0,0.0,0.0,-0.020572034642100334,0.0016285729361698031,0.004036037251353264,0.0,0.0,0.0,0.0,0.0,0.0,0.0,0.0,0.0,0.07897436618804932,-0.07179487496614456,9.735384941101074,0.0,0.0,0.0,0.0,0.0,0.0,0.0,0.0,0.0
1646243488.299766,6953,1646243488,299360731,,0.0,0.0,0.0,0.0,0.0,0.0,0.0,0.0,0.0,0.0,0.0,0.0,0.0,-0.024833092465996742,-0.010089334100484848,0.00723183061927557,0.0,0.0,0.0,0.0,0.0,0.0,0.0,0.0,0.0,0.09153846651315689,0.25128206610679626,9.932821273803711,0.0,0.0,0.0,0.0,0.0,0.0,0.0,0.0,0.0
1646243488.3019993,6954,1646243488,301606311,,0.0,0.0,0.0,0.0,0.0,0.0,0.0,0.0,0.0,0.0,0.0,0.0,0.0,-0.020572034642100334,0.0037591024301946163,-0.00022502047067973763,0.0,0.0,0.0,0.0,0.0,0.0,0.0,0.0,0.0,0.18487180769443512,0.1148717999458313,9.39794921875,0.0,0.0,0.0,0.0,0.0,0.0,0.0,0.0,0.0
1646243488.3042824,6955,1646243488,303818036,,0.0,0.0,0.0,0.0,0.0,0.0,0.0,0.0,0.0,0.0,0.0,0.0,0.0,-0.034420475363731384,0.0005633095279335976,0.004036037251353264,0.0,0.0,0.0,0.0,0.0,0.0,0.0,0.0,0.0,0.12205128371715546,0.3356410562992096,9.679743766784668,0.0,0.0,0.0,0.0,0.0,0.0,0.0,0.0,0.0
1646243488.3065116,6956,1646243488,306074683,,0.0,0.0,0.0,0.0,0.0,0.0,0.0,0.0,0.0,0.0,0.0,0.0,0.0,-0.030159417539834976,-0.0015672193840146065,-0.0012902843300253153,0.0,0.0,0.0,0.0,0.0,0.0,0.0,0.0,0.0,0.0412820540368557,0.3571794927120209,9.9005126953125,0.0,0.0,0.0,0.0,0.0,0.0,0.0,0.0,0.0
1646243488.308782,6957,1646243488,308382809,,0.0,0.0,0.0,0.0,0.0,0.0,0.0,0.0,0.0,0.0,0.0,0.0,0.0,-0.037616267800331116,-0.0036977482959628105,0.013623417355120182,0.0,0.0,0.0,0.0,0.0,0.0,0.0,0.0,0.0,-0.012564103119075298,0.04307692497968674,9.794615745544434,0.0,0.0,0.0,0.0,0.0,0.0,0.0,0.0,0.0
1646243488.3110023,6958,1646243488,310663296,,0.0,0.0,0.0,0.0,0.0,0.0,0.0,0.0,0.0,0.0,0.0,0.0,0.0,-0.014180450700223446,0.020803332328796387,-0.00022502047067973763,0.0,0.0,0.0,0.0,0.0,0.0,0.0,0.0,0.0,0.10230769217014313,0.25128206610679626,9.532564163208008,0.0,0.0,0.0,0.0,0.0,0.0,0.0,0.0,0.0
1646243488.3134248,6959,1646243488,313038690,,0.0,0.0,0.0,0.0,0.0,0.0,0.0,0.0,0.0,0.0,0.0,0.0,0.0,-0.0035278063733130693,0.0026938372757285833,-0.0034208132419735193,0.0,0.0,0.0,0.0,0.0,0.0,0.0,0.0,0.0,0.29615384340286255,-0.08974359184503555,9.871794700622559,0.0,0.0,0.0,0.0,0.0,0.0,0.0,0.0,0.0
1646243488.3157535,6960,1646243488,315274179,,0.0,0.0,0.0,0.0,0.0,0.0,0.0,0.0,0.0,0.0,0.0,0.0,0.0,-0.026963621377944946,0.0026938372757285833,0.008297095075249672,0.0,0.0,0.0,0.0,0.0,0.0,0.0,0.0,0.0,-0.10410256683826447,0.43794873356819153,10.10333251953125,0.0,0.0,0.0,0.0,0.0,0.0,0.0,0.0,0.0
1646243488.3179698,6961,1646243488,317595858,,0.0,0.0,0.0,0.0,0.0,0.0,0.0,0.0,0.0,0.0,0.0,0.0,0.0,-0.022702563554048538,0.025064390152692795,0.035993970930576324,0.0,0.0,0.0,0.0,0.0,0.0,0.0,0.0,0.0,-0.025128206238150597,0.2800000011920929,10.234358787536621,0.0,0.0,0.0,0.0,0.0,0.0,0.0,0.0,0.0
1646243488.3202524,6962,1646243488,319837061,,0.0,0.0,0.0,0.0,0.0,0.0,0.0,0.0,0.0,0.0,0.0,0.0,0.0,-0.0077888634987175465,-0.03459041193127632,-0.006616605911403894,0.0,0.0,0.0,0.0,0.0,0.0,0.0,0.0,0.0,-0.19025641679763794,0.023333333432674408,9.907692909240723,0.0,0.0,0.0,0.0,0.0,0.0,0.0,0.0,0.0
1646243488.3233523,6963,1646243488,322073408,,0.0,0.0,0.0,0.0,0.0,0.0,0.0,0.0,0.0,0.0,0.0,0.0,0.0,-0.02909415028989315,0.0037591024301946163,0.002970772795379162,0.0,0.0,0.0,0.0,0.0,0.0,0.0,0.0,0.0,0.0735897421836853,0.1561538577079773,9.950769424438477,0.0,0.0,0.0,0.0,0.0,0.0,0.0,0.0,0.0
1646243488.3246868,6964,1646243488,324308395,,0.0,0.0,0.0,0.0,0.0,0.0,0.0,0.0,0.0,0.0,0.0,0.0,0.0,-0.01844150573015213,0.009085424244403839,-0.008747135289013386,0.0,0.0,0.0,0.0,0.0,0.0,0.0,0.0,0.0,0.13641025125980377,0.12923076748847961,9.839487075805664,0.0,0.0,0.0,0.0,0.0,0.0,0.0,0.0,0.0
1646243488.3270657,6965,1646243488,326539584,,0.0,0.0,0.0,0.0,0.0,0.0,0.0,0.0,0.0,0.0,0.0,0.0,0.0,-0.024833092465996742,-0.0005019548698328435,0.009362359531223774,0.0,0.0,0.0,0.0,0.0,0.0,0.0,0.0,0.0,0.24230769276618958,0.2530769407749176,9.577435493469238,0.0,0.0,0.0,0.0,0.0,0.0,0.0,0.0,0.0
1646243488.3291667,6966,1646243488,328847594,,0.0,0.0,0.0,0.0,0.0,0.0,0.0,0.0,0.0,0.0,0.0,0.0,0.0,0.013516423292458057,-0.013285127468407154,0.008297095075249672,0.0,0.0,0.0,0.0,0.0,0.0,0.0,0.0,0.0,0.15794873237609863,0.11666666716337204,9.735384941101074,0.0,0.0,0.0,0.0,0.0,0.0,0.0,0.0,0.0
1646243488.3314884,6967,1646243488,331042941,,0.0,0.0,0.0,0.0,0.0,0.0,0.0,0.0,0.0,0.0,0.0,0.0,0.0,-0.03548574075102806,0.018672803416848183,-0.0034208132419735193,0.0,0.0,0.0,0.0,0.0,0.0,0.0,0.0,0.0,0.07538461685180664,-0.19564102590084076,9.607949256896973,0.0,0.0,0.0,0.0,0.0,0.0,0.0,0.0,0.0
1646243488.3336837,6968,1646243488,333250084,,0.0,0.0,0.0,0.0,0.0,0.0,0.0,0.0,0.0,0.0,0.0,0.0,0.0,-0.005658335518091917,0.03358650580048561,0.01575394533574581,0.0,0.0,0.0,0.0,0.0,0.0,0.0,0.0,0.0,0.06102564185857773,0.2979487180709839,9.999231338500977,0.0,0.0,0.0,0.0,0.0,0.0,0.0,0.0,0.0
1646243488.335859,6969,1646243488,335427997,,0.0,0.0,0.0,0.0,0.0,0.0,0.0,0.0,0.0,0.0,0.0,0.0,0.0,-0.023767828941345215,0.004824366886168718,0.017884474247694016,0.0,0.0,0.0,0.0,0.0,0.0,0.0,0.0,0.0,-0.05564102530479431,0.12564103305339813,9.852051734924316,0.0,0.0,0.0,0.0,0.0,0.0,0.0,0.0,0.0
1646243488.338099,6970,1646243488,337693574,,0.0,0.0,0.0,0.0,0.0,0.0,0.0,0.0,0.0,0.0,0.0,0.0,0.0,-0.01098465733230114,0.008020159788429737,0.00723183061927557,0.0,0.0,0.0,0.0,0.0,0.0,0.0,0.0,0.0,-0.16692309081554413,0.18128205835819244,10.05666732788086,0.0,0.0,0.0,0.0,0.0,0.0,0.0,0.0,0.0
1646243488.340254,6971,1646243488,339910506,,0.0,0.0,0.0,0.0,0.0,0.0,0.0,0.0,0.0,0.0,0.0,0.0,0.0,0.001798515673726797,-0.0026324838399887085,0.005101301707327366,0.0,0.0,0.0,0.0,0.0,0.0,0.0,0.0,0.0,0.14358974993228912,-0.07717949151992798,9.607949256896973,0.0,0.0,0.0,0.0,0.0,0.0,0.0,0.0,0.0
1646243488.342793,6972,1646243488,342132093,,0.0,0.0,0.0,0.0,0.0,0.0,0.0,0.0,0.0,0.0,0.0,0.0,0.0,-0.022702563554048538,0.006954895332455635,0.0008402442326769233,0.0,0.0,0.0,0.0,0.0,0.0,0.0,0.0,0.0,0.29615384340286255,0.18487180769443512,9.376410484313965,0.0,0.0,0.0,0.0,0.0,0.0,0.0,0.0,0.0
1646243488.3448205,6973,1646243488,344373640,,0.0,0.0,0.0,0.0,0.0,0.0,0.0,0.0,0.0,0.0,0.0,0.0,0.0,-0.0077888634987175465,-0.006893542595207691,0.006166566163301468,0.0,0.0,0.0,0.0,0.0,0.0,0.0,0.0,0.0,0.025128206238150597,0.07897436618804932,9.59538459777832,0.0,0.0,0.0,0.0,0.0,0.0,0.0,0.0,0.0
1646243488.347016,6974,1646243488,346588361,,0.0,0.0,0.0,0.0,0.0,0.0,0.0,0.0,0.0,0.0,0.0,0.0,0.0,-0.0077888634987175465,0.013346482068300247,0.025341326370835304,0.0,0.0,0.0,0.0,0.0,0.0,0.0,0.0,0.0,0.24230769276618958,-0.2746153771877289,9.543333053588867,0.0,0.0,0.0,0.0,0.0,0.0,0.0,0.0,0.0
