Time,header.seq,header.stamp.secs,header.stamp.nsecs,header.frame_id,orientation.x,orientation.y,orientation.z,orientation.w,orientation_covariance_0,orientation_covariance_1,orientation_covariance_2,orientation_covariance_3,orientation_covariance_4,orientation_covariance_5,orientation_covariance_6,orientation_covariance_7,orientation_covariance_8,angular_velocity.x,angular_velocity.y,angular_velocity.z,angular_velocity_covariance_0,angular_velocity_covariance_1,angular_velocity_covariance_2,angular_velocity_covariance_3,angular_velocity_covariance_4,angular_velocity_covariance_5,angular_velocity_covariance_6,angular_velocity_covariance_7,angular_velocity_covariance_8,linear_acceleration.x,linear_acceleration.y,linear_acceleration.z,linear_acceleration_covariance_0,linear_acceleration_covariance_1,linear_acceleration_covariance_2,linear_acceleration_covariance_3,linear_acceleration_covariance_4,linear_acceleration_covariance_5,linear_acceleration_covariance_6,linear_acceleration_covariance_7,linear_acceleration_covariance_8
1646350604.8035657,7989,1646350604,802444282,,0.0,0.0,0.0,0.0,0.0,0.0,0.0,0.0,0.0,0.0,0.0,0.0,0.0,-0.01506427489221096,0.010769677348434925,-0.01976553350687027,0.0,0.0,0.0,0.0,0.0,0.0,0.0,0.0,0.0,0.1382051259279251,0.17769230902194977,10.105128288269043,0.0,0.0,0.0,0.0,0.0,0.0,0.0,0.0,0.0
1646350604.8053243,7990,1646350604,804692512,,0.0,0.0,0.0,0.0,0.0,0.0,0.0,0.0,0.0,0.0,0.0,0.0,0.0,-0.00441163033246994,-0.007339817471802235,0.0058008101768791676,0.0,0.0,0.0,0.0,0.0,0.0,0.0,0.0,0.0,0.09871795028448105,-0.23512820899486542,9.55589771270752,0.0,0.0,0.0,0.0,0.0,0.0,0.0,0.0,0.0
1646350604.807455,7991,1646350604,806963638,,0.0,0.0,0.0,0.0,0.0,0.0,0.0,0.0,0.0,0.0,0.0,0.0,0.0,-0.002281100954860449,0.017161265015602112,0.015388189814984798,0.0,0.0,0.0,0.0,0.0,0.0,0.0,0.0,0.0,0.09333333373069763,-0.24230769276618958,9.50205135345459,0.0,0.0,0.0,0.0,0.0,0.0,0.0,0.0,0.0
1646350604.8096666,7992,1646350604,809224572,,0.0,0.0,0.0,0.0,0.0,0.0,0.0,0.0,0.0,0.0,0.0,0.0,0.0,0.0030452206265181303,0.010769677348434925,-0.013373949564993382,0.0,0.0,0.0,0.0,0.0,0.0,0.0,0.0,0.0,0.18307693302631378,0.13102564215660095,10.027949333190918,0.0,0.0,0.0,0.0,0.0,0.0,0.0,0.0,0.0
1646350604.8118277,7993,1646350604,811445283,,0.0,0.0,0.0,0.0,0.0,0.0,0.0,0.0,0.0,0.0,0.0,0.0,0.0,-0.005476894788444042,0.00544335599988699,0.0026050168089568615,0.0,0.0,0.0,0.0,0.0,0.0,0.0,0.0,0.0,0.2387179583311081,-0.05743589997291565,9.514616012573242,0.0,0.0,0.0,0.0,0.0,0.0,0.0,0.0,0.0
1646350604.814149,7994,1646350604,813655578,,0.0,0.0,0.0,0.0,0.0,0.0,0.0,0.0,0.0,0.0,0.0,0.0,0.0,0.017958922311663628,-0.005209287628531456,0.01112713199108839,0.0,0.0,0.0,0.0,0.0,0.0,0.0,0.0,0.0,0.24051281809806824,0.12205128371715546,10.038718223571777,0.0,0.0,0.0,0.0,0.0,0.0,0.0,0.0,0.0
1646350604.8162446,7995,1646350604,815887520,,0.0,0.0,0.0,0.0,0.0,0.0,0.0,0.0,0.0,0.0,0.0,0.0,0.0,-0.010803216136991978,-0.016927195712924004,-0.017635004594922066,0.0,0.0,0.0,0.0,0.0,0.0,0.0,0.0,0.0,-0.06461538374423981,-0.2117948830127716,9.426666259765625,0.0,0.0,0.0,0.0,0.0,0.0,0.0,0.0,0.0
1646350604.8186057,7996,1646350604,818162558,,0.0,0.0,0.0,0.0,0.0,0.0,0.0,0.0,0.0,0.0,0.0,0.0,0.0,-0.010803216136991978,0.003312827320769429,-0.018700269982218742,0.0,0.0,0.0,0.0,0.0,0.0,0.0,0.0,0.0,0.2297435998916626,0.25128206610679626,10.040512084960938,0.0,0.0,0.0,0.0,0.0,0.0,0.0,0.0,0.0
1646350604.8208766,7997,1646350604,820396212,,0.0,0.0,0.0,0.0,0.0,0.0,0.0,0.0,0.0,0.0,0.0,0.0,0.0,0.01156733650714159,0.00011703448399202898,-0.012308684177696705,0.0,0.0,0.0,0.0,0.0,0.0,0.0,0.0,0.0,0.2387179583311081,-0.025128206238150597,9.769487380981445,0.0,0.0,0.0,0.0,0.0,0.0,0.0,0.0,0.0
1646350604.8231409,7998,1646350604,822658399,,0.0,0.0,0.0,0.0,0.0,0.0,0.0,0.0,0.0,0.0,0.0,0.0,0.0,-0.00441163033246994,0.01822652854025364,0.0036702812649309635,0.0,0.0,0.0,0.0,0.0,0.0,0.0,0.0,0.0,0.38769233226776123,0.27282050251960754,9.703076362609863,0.0,0.0,0.0,0.0,0.0,0.0,0.0,0.0,0.0
1646350604.825484,7999,1646350604,824948967,,0.0,0.0,0.0,0.0,0.0,0.0,0.0,0.0,0.0,0.0,0.0,0.0,0.0,0.01156733650714159,-0.0009482299210503697,-0.0101781552657485,0.0,0.0,0.0,0.0,0.0,0.0,0.0,0.0,0.0,0.21897436678409576,0.10410256683826447,10.11230754852295,0.0,0.0,0.0,0.0,0.0,0.0,0.0,0.0,0.0
1646350604.8275764,8000,1646350604,827195493,,0.0,0.0,0.0,0.0,0.0,0.0,0.0,0.0,0.0,0.0,0.0,0.0,0.0,-0.008672687225043774,-0.006274553015828133,0.000474488188046962,0.0,0.0,0.0,0.0,0.0,0.0,0.0,0.0,0.0,-0.02153846248984337,-0.18666666746139526,9.45897388458252,0.0,0.0,0.0,0.0,0.0,0.0,0.0,0.0,0.0
1646350604.8298419,8001,1646350604,829392855,,0.0,0.0,0.0,0.0,0.0,0.0,0.0,0.0,0.0,0.0,0.0,0.0,0.0,0.006241013761609793,0.00011703448399202898,-0.0005907765007577837,0.0,0.0,0.0,0.0,0.0,0.0,0.0,0.0,0.0,0.18666666746139526,0.1974359005689621,10.031538009643555,0.0,0.0,0.0,0.0,0.0,0.0,0.0,0.0,0.0
1646350604.8318741,8002,1646350604,831598614,,0.0,0.0,0.0,0.0,0.0,0.0,0.0,0.0,0.0,0.0,0.0,0.0,0.0,-0.0012158364988863468,-0.02225351706147194,-0.005917098838835955,0.0,0.0,0.0,0.0,0.0,0.0,0.0,0.0,0.0,-0.09333333373069763,-0.18307693302631378,9.365640640258789,0.0,0.0,0.0,0.0,0.0,0.0,0.0,0.0,0.0
1646350604.8343604,8003,1646350604,833875673,,0.0,0.0,0.0,0.0,0.0,0.0,0.0,0.0,0.0,0.0,0.0,0.0,0.0,0.010502072051167488,-0.030775634571909904,-0.008047626353800297,0.0,0.0,0.0,0.0,0.0,0.0,0.0,0.0,0.0,0.12205128371715546,0.12564103305339813,10.11230754852295,0.0,0.0,0.0,0.0,0.0,0.0,0.0,0.0,0.0
1646350604.8366153,8004,1646350604,836068336,,0.0,0.0,0.0,0.0,0.0,0.0,0.0,0.0,0.0,0.0,0.0,0.0,0.0,-0.003346365410834551,0.023552851751446724,0.0036702812649309635,0.0,0.0,0.0,0.0,0.0,0.0,0.0,0.0,0.0,0.31051284074783325,-0.0735897421836853,9.916666030883789,0.0,0.0,0.0,0.0,0.0,0.0,0.0,0.0,0.0
1646350604.8386059,8005,1646350604,838252028,,0.0,0.0,0.0,0.0,0.0,0.0,0.0,0.0,0.0,0.0,0.0,0.0,0.0,0.014763129875063896,0.003312827320769429,-0.005917098838835955,0.0,0.0,0.0,0.0,0.0,0.0,0.0,0.0,0.0,0.3302564322948456,0.26025640964508057,9.55230712890625,0.0,0.0,0.0,0.0,0.0,0.0,0.0,0.0,0.0
1646350604.8408482,8006,1646350604,840425348,,0.0,0.0,0.0,0.0,0.0,0.0,0.0,0.0,0.0,0.0,0.0,0.0,0.0,-0.016129538416862488,-0.015861930325627327,-0.005917098838835955,0.0,0.0,0.0,0.0,0.0,0.0,0.0,0.0,0.0,0.38769233226776123,-0.11846154183149338,9.882563591003418,0.0,0.0,0.0,0.0,0.0,0.0,0.0,0.0,0.0
1646350604.8430536,8007,1646350604,842636483,,0.0,0.0,0.0,0.0,0.0,0.0,0.0,0.0,0.0,0.0,0.0,0.0,0.0,-0.00654215831309557,-0.0020134944934397936,-0.012308684177696705,0.0,0.0,0.0,0.0,0.0,0.0,0.0,0.0,0.0,0.22615385055541992,0.3266666829586029,9.75333309173584,0.0,0.0,0.0,0.0,0.0,0.0,0.0,0.0,0.0
1646350604.8452713,8008,1646350604,844889820,,0.0,0.0,0.0,0.0,0.0,0.0,0.0,0.0,0.0,0.0,0.0,0.0,0.0,-0.00015057262498885393,-0.003078758716583252,-0.021896062418818474,0.0,0.0,0.0,0.0,0.0,0.0,0.0,0.0,0.0,0.11666666716337204,0.26384615898132324,10.11230754852295,0.0,0.0,0.0,0.0,0.0,0.0,0.0,0.0,0.0
1646350604.8474565,8009,1646350604,847187077,,0.0,0.0,0.0,0.0,0.0,0.0,0.0,0.0,0.0,0.0,0.0,0.0,0.0,0.008371543139219284,-0.02544931322336197,-0.0101781552657485,0.0,0.0,0.0,0.0,0.0,0.0,0.0,0.0,0.0,-0.16871795058250427,-0.20102564990520477,9.283077239990234,0.0,0.0,0.0,0.0,0.0,0.0,0.0,0.0,0.0
1646350604.8497741,8010,1646350604,849390730,,0.0,0.0,0.0,0.0,0.0,0.0,0.0,0.0,0.0,0.0,0.0,0.0,0.0,-0.01506427489221096,0.016095999628305435,-0.006982361897826195,0.0,0.0,0.0,0.0,0.0,0.0,0.0,0.0,0.0,0.2028205245733261,0.2028205245733261,10.142821311950684,0.0,0.0,0.0,0.0,0.0,0.0,0.0,0.0,0.0
1646350604.8521035,8011,1646350604,851648900,,0.0,0.0,0.0,0.0,0.0,0.0,0.0,0.0,0.0,0.0,0.0,0.0,0.0,0.007306278217583895,0.00224756239913404,0.0015397525858134031,0.0,0.0,0.0,0.0,0.0,0.0,0.0,0.0,0.0,0.30512821674346924,-0.18487180769443512,9.441025733947754,0.0,0.0,0.0,0.0,0.0,0.0,0.0,0.0,0.0
1646350604.8543732,8012,1646350604,853919592,,0.0,0.0,0.0,0.0,0.0,0.0,0.0,0.0,0.0,0.0,0.0,0.0,0.0,0.023285245522856712,-0.020122988149523735,-0.0016560404328629375,0.0,0.0,0.0,0.0,0.0,0.0,0.0,0.0,0.0,0.2153846174478531,0.2064102590084076,9.704872131347656,0.0,0.0,0.0,0.0,0.0,0.0,0.0,0.0,0.0
1646350604.8565173,8013,1646350604,856105705,,0.0,0.0,0.0,0.0,0.0,0.0,0.0,0.0,0.0,0.0,0.0,0.0,0.0,-0.031043240800499916,0.006508619990199804,-0.0016560404328629375,0.0,0.0,0.0,0.0,0.0,0.0,0.0,0.0,0.0,0.10230769217014313,0.13641025125980377,10.182308197021484,0.0,0.0,0.0,0.0,0.0,0.0,0.0,0.0,0.0
1646350604.8587422,8014,1646350604,858392642,,0.0,0.0,0.0,0.0,0.0,0.0,0.0,0.0,0.0,0.0,0.0,0.0,0.0,0.010502072051167488,0.008639149367809296,0.0164534542709589,0.0,0.0,0.0,0.0,0.0,0.0,0.0,0.0,0.0,0.08974359184503555,-0.1794871836900711,9.36025619506836,0.0,0.0,0.0,0.0,0.0,0.0,0.0,0.0,0.0
1646350604.8610754,8015,1646350604,860605008,,0.0,0.0,0.0,0.0,0.0,0.0,0.0,0.0,0.0,0.0,0.0,0.0,0.0,-0.005476894788444042,0.006508619990199804,-0.006982361897826195,0.0,0.0,0.0,0.0,0.0,0.0,0.0,0.0,0.0,0.07538461685180664,0.06820512562990189,10.184102058410645,0.0,0.0,0.0,0.0,0.0,0.0,0.0,0.0,0.0
1646350604.8630922,8016,1646350604,862811265,,0.0,0.0,0.0,0.0,0.0,0.0,0.0,0.0,0.0,0.0,0.0,0.0,0.0,0.005175749771296978,-0.0020134944934397936,0.02071451209485531,0.0,0.0,0.0,0.0,0.0,0.0,0.0,0.0,0.0,0.25128206610679626,0.01794871874153614,9.581025123596191,0.0,0.0,0.0,0.0,0.0,0.0,0.0,0.0,0.0
1646350604.8663278,8017,1646350604,865188983,,0.0,0.0,0.0,0.0,0.0,0.0,0.0,0.0,0.0,0.0,0.0,0.0,0.0,-0.0012158364988863468,0.00011703448399202898,-0.03361397236585617,0.0,0.0,0.0,0.0,0.0,0.0,0.0,0.0,0.0,0.25487178564071655,0.2028205245733261,10.11230754852295,0.0,0.0,0.0,0.0,0.0,0.0,0.0,0.0,0.0
1646350604.86779,8018,1646350604,867392595,,0.0,0.0,0.0,0.0,0.0,0.0,0.0,0.0,0.0,0.0,0.0,0.0,0.0,-0.003346365410834551,0.004378091543912888,-0.0027213047724217176,0.0,0.0,0.0,0.0,0.0,0.0,0.0,0.0,0.0,0.15974359214305878,-0.2476923167705536,9.577435493469238,0.0,0.0,0.0,0.0,0.0,0.0,0.0,0.0,0.0
1646350604.8700907,8019,1646350604,869625711,,0.0,0.0,0.0,0.0,0.0,0.0,0.0,0.0,0.0,0.0,0.0,0.0,0.0,-0.0012158364988863468,0.009704413823783398,0.0036702812649309635,0.0,0.0,0.0,0.0,0.0,0.0,0.0,0.0,0.0,0.19025641679763794,0.2530769407749176,10.119487762451172,0.0,0.0,0.0,0.0,0.0,0.0,0.0,0.0,0.0
1646350604.8723805,8020,1646350604,871954231,,0.0,0.0,0.0,0.0,0.0,0.0,0.0,0.0,0.0,0.0,0.0,0.0,0.0,-0.01932533085346222,0.006508619990199804,-0.021896062418818474,0.0,0.0,0.0,0.0,0.0,0.0,0.0,0.0,0.0,0.06641025841236115,0.032307691872119904,10.033333778381348,0.0,0.0,0.0,0.0,0.0,0.0,0.0,0.0,0.0
1646350604.8745418,8021,1646350604,874153980,,0.0,0.0,0.0,0.0,0.0,0.0,0.0,0.0,0.0,0.0,0.0,0.0,0.0,0.006241013761609793,0.015030735172331333,0.022845041006803513,0.0,0.0,0.0,0.0,0.0,0.0,0.0,0.0,0.0,0.20820513367652893,-0.13641025125980377,9.374615669250488,0.0,0.0,0.0,0.0,0.0,0.0,0.0,0.0,0.0
1646350604.8778462,8022,1646350604,876357656,,0.0,0.0,0.0,0.0,0.0,0.0,0.0,0.0,0.0,0.0,0.0,0.0,0.0,-0.010803216136991978,-0.006274553015828133,0.015388189814984798,0.0,0.0,0.0,0.0,0.0,0.0,0.0,0.0,0.0,0.08794872462749481,0.06641025841236115,10.176923751831055,0.0,0.0,0.0,0.0,0.0,0.0,0.0,0.0,0.0
1646350604.8789666,8023,1646350604,878631011,,0.0,0.0,0.0,0.0,0.0,0.0,0.0,0.0,0.0,0.0,0.0,0.0,0.0,-0.002281100954860449,-0.01799245923757553,-0.008047626353800297,0.0,0.0,0.0,0.0,0.0,0.0,0.0,0.0,0.0,-0.03589743748307228,-0.21897436678409576,9.347692489624023,0.0,0.0,0.0,0.0,0.0,0.0,0.0,0.0,0.0
1646350604.8814635,8024,1646350604,881004111,,0.0,0.0,0.0,0.0,0.0,0.0,0.0,0.0,0.0,0.0,0.0,0.0,0.0,-0.008672687225043774,-0.007339817471802235,0.0015397525858134031,0.0,0.0,0.0,0.0,0.0,0.0,0.0,0.0,0.0,0.39666667580604553,0.33384618163108826,10.069230079650879,0.0,0.0,0.0,0.0,0.0,0.0,0.0,0.0,0.0
1646350604.8839414,8025,1646350604,883275166,,0.0,0.0,0.0,0.0,0.0,0.0,0.0,0.0,0.0,0.0,0.0,0.0,0.0,0.015828393399715424,0.00011703448399202898,0.007931338623166084,0.0,0.0,0.0,0.0,0.0,0.0,0.0,0.0,0.0,0.19384616613388062,-0.2710256576538086,9.65461540222168,0.0,0.0,0.0,0.0,0.0,0.0,0.0,0.0,0.0
1646350604.8860612,8026,1646350604,885532133,,0.0,0.0,0.0,0.0,0.0,0.0,0.0,0.0,0.0,0.0,0.0,0.0,0.0,0.006241013761609793,-0.02118825353682041,-0.031483445316553116,0.0,0.0,0.0,0.0,0.0,0.0,0.0,0.0,0.0,0.32307693362236023,0.12025640904903412,9.652820587158203,0.0,0.0,0.0,0.0,0.0,0.0,0.0,0.0,0.0
1646350604.8881538,8027,1646350604,887766544,,0.0,0.0,0.0,0.0,0.0,0.0,0.0,0.0,0.0,0.0,0.0,0.0,0.0,0.005175749771296978,0.008639149367809296,-0.015504478476941586,0.0,0.0,0.0,0.0,0.0,0.0,0.0,0.0,0.0,0.28717949986457825,0.016153845936059952,9.651025772094727,0.0,0.0,0.0,0.0,0.0,0.0,0.0,0.0,0.0
1646350604.890471,8028,1646350604,890135853,,0.0,0.0,0.0,0.0,0.0,0.0,0.0,0.0,0.0,0.0,0.0,0.0,0.0,-0.003346365410834551,0.016095999628305435,0.000474488188046962,0.0,0.0,0.0,0.0,0.0,0.0,0.0,0.0,0.0,0.11307692527770996,-0.2117948830127716,9.40871810913086,0.0,0.0,0.0,0.0,0.0,0.0,0.0,0.0,0.0
1646350604.892786,8029,1646350604,892381525,,0.0,0.0,0.0,0.0,0.0,0.0,0.0,0.0,0.0,0.0,0.0,0.0,0.0,-0.00654215831309557,-0.005209287628531456,-0.009112890809774399,0.0,0.0,0.0,0.0,0.0,0.0,0.0,0.0,0.0,0.12205128371715546,0.19384616613388062,10.05128288269043,0.0,0.0,0.0,0.0,0.0,0.0,0.0,0.0,0.0
1646350604.8950956,8030,1646350604,894580362,,0.0,0.0,0.0,0.0,0.0,0.0,0.0,0.0,0.0,0.0,0.0,0.0,0.0,0.01156733650714159,0.022487586364150047,0.014322925359010696,0.0,0.0,0.0,0.0,0.0,0.0,0.0,0.0,0.0,-0.007179487496614456,-0.17230769991874695,9.493077278137207,0.0,0.0,0.0,0.0,0.0,0.0,0.0,0.0,0.0
1646350604.8973925,8031,1646350604,896820832,,0.0,0.0,0.0,0.0,0.0,0.0,0.0,0.0,0.0,0.0,0.0,0.0,0.0,0.009436807595193386,-0.020122988149523735,-0.015504478476941586,0.0,0.0,0.0,0.0,0.0,0.0,0.0,0.0,0.0,0.2207692414522171,0.21717949211597443,10.018974304199219,0.0,0.0,0.0,0.0,0.0,0.0,0.0,0.0,0.0
1646350604.8995454,8032,1646350604,899099506,,0.0,0.0,0.0,0.0,0.0,0.0,0.0,0.0,0.0,0.0,0.0,0.0,0.0,0.0009146920638158917,0.006508619990199804,-0.014439214020967484,0.0,0.0,0.0,0.0,0.0,0.0,0.0,0.0,0.0,0.12205128371715546,0.010769231244921684,9.927435874938965,0.0,0.0,0.0,0.0,0.0,0.0,0.0,0.0,0.0
1646350604.9016583,8033,1646350604,901314519,,0.0,0.0,0.0,0.0,0.0,0.0,0.0,0.0,0.0,0.0,0.0,0.0,0.0,0.007306278217583895,0.003312827320769429,-0.0027213047724217176,0.0,0.0,0.0,0.0,0.0,0.0,0.0,0.0,0.0,0.31589746475219727,0.21000000834465027,9.61153793334961,0.0,0.0,0.0,0.0,0.0,0.0,0.0,0.0,0.0
1646350604.9039035,8034,1646350604,903526465,,0.0,0.0,0.0,0.0,0.0,0.0,0.0,0.0,0.0,0.0,0.0,0.0,0.0,-0.012933745980262756,-0.019057724624872208,-0.0027213047724217176,0.0,0.0,0.0,0.0,0.0,0.0,0.0,0.0,0.0,0.2979487180709839,0.007179487496614456,9.821538925170898,0.0,0.0,0.0,0.0,0.0,0.0,0.0,0.0,0.0
1646350604.9061496,8035,1646350604,905760451,,0.0,0.0,0.0,0.0,0.0,0.0,0.0,0.0,0.0,0.0,0.0,0.0,0.0,0.012632600963115692,0.004378091543912888,-0.0037865692283958197,0.0,0.0,0.0,0.0,0.0,0.0,0.0,0.0,0.0,0.2530769407749176,0.2387179583311081,9.631281852722168,0.0,0.0,0.0,0.0,0.0,0.0,0.0,0.0,0.0
1646350604.9084537,8036,1646350604,908001094,,0.0,0.0,0.0,0.0,0.0,0.0,0.0,0.0,0.0,0.0,0.0,0.0,0.0,0.014763129875063896,-0.005209287628531456,-0.008047626353800297,0.0,0.0,0.0,0.0,0.0,0.0,0.0,0.0,0.0,0.17230769991874695,0.2297435998916626,9.995640754699707,0.0,0.0,0.0,0.0,0.0,0.0,0.0,0.0,0.0
1646350604.9106877,8037,1646350604,910241713,,0.0,0.0,0.0,0.0,0.0,0.0,0.0,0.0,0.0,0.0,0.0,0.0,0.0,-0.00441163033246994,-0.007339817471802235,0.015388189814984798,0.0,0.0,0.0,0.0,0.0,0.0,0.0,0.0,0.0,-0.03769230842590332,-0.2674359083175659,9.412307739257812,0.0,0.0,0.0,0.0,0.0,0.0,0.0,0.0,0.0
1646350604.9129221,8038,1646350604,912479795,,0.0,0.0,0.0,0.0,0.0,0.0,0.0,0.0,0.0,0.0,0.0,0.0,0.0,0.004110485315322876,-0.010535608977079391,-0.028287649154663086,0.0,0.0,0.0,0.0,0.0,0.0,0.0,0.0,0.0,0.1471794843673706,0.20820513367652893,10.105128288269043,0.0,0.0,0.0,0.0,0.0,0.0,0.0,0.0,0.0
1646350604.915875,8039,1646350604,914772006,,0.0,0.0,0.0,0.0,0.0,0.0,0.0,0.0,0.0,0.0,0.0,0.0,0.0,-0.0012158364988863468,0.012900206260383129,0.026040835306048393,0.0,0.0,0.0,0.0,0.0,0.0,0.0,0.0,0.0,0.3912820518016815,-0.24589744210243225,9.627692222595215,0.0,0.0,0.0,0.0,0.0,0.0,0.0,0.0,0.0
1646350604.917479,8040,1646350604,916999720,,0.0,0.0,0.0,0.0,0.0,0.0,0.0,0.0,0.0,0.0,0.0,0.0,0.0,-0.013999010436236858,0.006508619990199804,-0.0027213047724217176,0.0,0.0,0.0,0.0,0.0,0.0,0.0,0.0,0.0,0.26025640964508057,0.13102564215660095,9.676154136657715,0.0,0.0,0.0,0.0,0.0,0.0,0.0,0.0,0.0
1646350604.9212937,8041,1646350604,919251822,,0.0,0.0,0.0,0.0,0.0,0.0,0.0,0.0,0.0,0.0,0.0,0.0,0.0,-0.00015057262498885393,0.006508619990199804,-0.004851834382861853,0.0,0.0,0.0,0.0,0.0,0.0,0.0,0.0,0.0,0.2800000011920929,0.15974359214305878,9.966922760009766,0.0,0.0,0.0,0.0,0.0,0.0,0.0,0.0,0.0
1646350604.921878,8042,1646350604,921493643,,0.0,0.0,0.0,0.0,0.0,0.0,0.0,0.0,0.0,0.0,0.0,0.0,0.0,-0.007607422769069672,-0.010535608977079391,0.026040835306048393,0.0,0.0,0.0,0.0,0.0,0.0,0.0,0.0,0.0,-0.01974359154701233,-0.32487180829048157,9.381794929504395,0.0,0.0,0.0,0.0,0.0,0.0,0.0,0.0,0.0
1646350604.9241483,8043,1646350604,923780139,,0.0,0.0,0.0,0.0,0.0,0.0,0.0,0.0,0.0,0.0,0.0,0.0,0.0,0.010502072051167488,0.001182297826744616,-0.009112890809774399,0.0,0.0,0.0,0.0,0.0,0.0,0.0,0.0,0.0,0.08435897529125214,0.1328205168247223,10.123077392578125,0.0,0.0,0.0,0.0,0.0,0.0,0.0,0.0,0.0
1646350604.9262116,8044,1646350604,925943893,,0.0,0.0,0.0,0.0,0.0,0.0,0.0,0.0,0.0,0.0,0.0,0.0,0.0,-0.009737951681017876,0.011834941804409027,-0.004851834382861853,0.0,0.0,0.0,0.0,0.0,0.0,0.0,0.0,0.0,0.06282051652669907,0.12025640904903412,10.060256004333496,0.0,0.0,0.0,0.0,0.0,0.0,0.0,0.0,0.0
1646350604.928286,8045,1646350604,928128263,,0.0,0.0,0.0,0.0,0.0,0.0,0.0,0.0,0.0,0.0,0.0,0.0,0.0,-0.0012158364988863468,0.00544335599988699,0.00686607463285327,0.0,0.0,0.0,0.0,0.0,0.0,0.0,0.0,0.0,0.21897436678409576,-0.05923077091574669,9.45358943939209,0.0,0.0,0.0,0.0,0.0,0.0,0.0,0.0,0.0
1646350604.9306526,8046,1646350604,930397513,,0.0,0.0,0.0,0.0,0.0,0.0,0.0,0.0,0.0,0.0,0.0,0.0,0.0,0.007306278217583895,0.001182297826744616,0.010061867535114288,0.0,0.0,0.0,0.0,0.0,0.0,0.0,0.0,0.0,0.19564102590084076,0.20820513367652893,10.115897178649902,0.0,0.0,0.0,0.0,0.0,0.0,0.0,0.0,0.0
1646350604.932886,8047,1646350604,932605664,,0.0,0.0,0.0,0.0,0.0,0.0,0.0,0.0,0.0,0.0,0.0,0.0,0.0,-0.009737951681017876,0.004378091543912888,0.0047355457209050655,0.0,0.0,0.0,0.0,0.0,0.0,0.0,0.0,0.0,-0.026923077180981636,-0.2441025674343109,9.347692489624023,0.0,0.0,0.0,0.0,0.0,0.0,0.0,0.0,0.0
1646350604.9351523,8048,1646350604,934755913,,0.0,0.0,0.0,0.0,0.0,0.0,0.0,0.0,0.0,0.0,0.0,0.0,0.0,-0.00441163033246994,0.00224756239913404,-0.011243419721722603,0.0,0.0,0.0,0.0,0.0,0.0,0.0,0.0,0.0,0.20820513367652893,0.19205129146575928,9.783845901489258,0.0,0.0,0.0,0.0,0.0,0.0,0.0,0.0,0.0
1646350604.9373548,8049,1646350604,936973662,,0.0,0.0,0.0,0.0,0.0,0.0,0.0,0.0,0.0,0.0,0.0,0.0,0.0,0.008371543139219284,-0.006274553015828133,-0.008047626353800297,0.0,0.0,0.0,0.0,0.0,0.0,0.0,0.0,0.0,0.3266666829586029,0.030512820929288864,9.69410228729248,0.0,0.0,0.0,0.0,0.0,0.0,0.0,0.0,0.0
1646350604.939365,8050,1646350604,939133255,,0.0,0.0,0.0,0.0,0.0,0.0,0.0,0.0,0.0,0.0,0.0,0.0,0.0,-0.009737951681017876,0.00011703448399202898,0.008996603079140186,0.0,0.0,0.0,0.0,0.0,0.0,0.0,0.0,0.0,0.2889743745326996,0.3123077154159546,9.762307167053223,0.0,0.0,0.0,0.0,0.0,0.0,0.0,0.0,0.0
1646350604.9415984,8051,1646350604,941299981,,0.0,0.0,0.0,0.0,0.0,0.0,0.0,0.0,0.0,0.0,0.0,0.0,0.0,0.013697865419089794,-0.013731402345001698,-0.0005907765007577837,0.0,0.0,0.0,0.0,0.0,0.0,0.0,0.0,0.0,0.42000001668930054,-0.030512820929288864,9.73717975616455,0.0,0.0,0.0,0.0,0.0,0.0,0.0,0.0,0.0
1646350604.9437394,8052,1646350604,943481155,,0.0,0.0,0.0,0.0,0.0,0.0,0.0,0.0,0.0,0.0,0.0,0.0,0.0,-0.01186848059296608,0.015030735172331333,0.021779777482151985,0.0,0.0,0.0,0.0,0.0,0.0,0.0,0.0,0.0,0.3589743673801422,0.29076921939849854,9.852051734924316,0.0,0.0,0.0,0.0,0.0,0.0,0.0,0.0,0.0
1646350604.94592,8053,1646350604,945647573,,0.0,0.0,0.0,0.0,0.0,0.0,0.0,0.0,0.0,0.0,0.0,0.0,0.0,0.001979956403374672,-0.0147966668009758,-0.009112890809774399,0.0,0.0,0.0,0.0,0.0,0.0,0.0,0.0,0.0,0.28717949986457825,-0.21717949211597443,9.760512351989746,0.0,0.0,0.0,0.0,0.0,0.0,0.0,0.0,0.0
1646350604.9481492,8054,1646350604,947845330,,0.0,0.0,0.0,0.0,0.0,0.0,0.0,0.0,0.0,0.0,0.0,0.0,0.0,0.010502072051167488,0.003312827320769429,0.0026050168089568615,0.0,0.0,0.0,0.0,0.0,0.0,0.0,0.0,0.0,-0.12564103305339813,-0.3141025900840759,9.478717803955078,0.0,0.0,0.0,0.0,0.0,0.0,0.0,0.0,0.0
1646350604.9502304,8055,1646350604,950029131,,0.0,0.0,0.0,0.0,0.0,0.0,0.0,0.0,0.0,0.0,0.0,0.0,0.0,-0.005476894788444042,0.003312827320769429,-0.0005907765007577837,0.0,0.0,0.0,0.0,0.0,0.0,0.0,0.0,0.0,0.2476923167705536,0.17769230902194977,9.970513343811035,0.0,0.0,0.0,0.0,0.0,0.0,0.0,0.0,0.0
1646350604.952447,8056,1646350604,952198175,,0.0,0.0,0.0,0.0,0.0,0.0,0.0,0.0,0.0,0.0,0.0,0.0,0.0,0.009436807595193386,-0.003078758716583252,0.0164534542709589,0.0,0.0,0.0,0.0,0.0,0.0,0.0,0.0,0.0,-0.05384615436196327,-0.3212820589542389,9.401537895202637,0.0,0.0,0.0,0.0,0.0,0.0,0.0,0.0,0.0
1646350604.954562,8057,1646350604,954357705,,0.0,0.0,0.0,0.0,0.0,0.0,0.0,0.0,0.0,0.0,0.0,0.0,0.0,-0.024651652202010155,-0.012666137889027596,-0.018700269982218742,0.0,0.0,0.0,0.0,0.0,0.0,0.0,0.0,0.0,0.21897436678409576,0.21897436678409576,10.191282272338867,0.0,0.0,0.0,0.0,0.0,0.0,0.0,0.0,0.0
1646350604.9567385,8058,1646350604,956511124,,0.0,0.0,0.0,0.0,0.0,0.0,0.0,0.0,0.0,0.0,0.0,0.0,0.0,0.015828393399715424,0.013965470716357231,0.0036702812649309635,0.0,0.0,0.0,0.0,0.0,0.0,0.0,0.0,0.0,0.12025640904903412,-0.2746153771877289,9.59000015258789,0.0,0.0,0.0,0.0,0.0,0.0,0.0,0.0,0.0
1646350604.959012,8059,1646350604,958772924,,0.0,0.0,0.0,0.0,0.0,0.0,0.0,0.0,0.0,0.0,0.0,0.0,0.0,-0.002281100954860449,-0.023318784311413765,0.0015397525858134031,0.0,0.0,0.0,0.0,0.0,0.0,0.0,0.0,0.0,0.05384615436196327,0.23692308366298676,9.997435569763184,0.0,0.0,0.0,0.0,0.0,0.0,0.0,0.0,0.0
1646350604.9620497,8060,1646350604,960990884,,0.0,0.0,0.0,0.0,0.0,0.0,0.0,0.0,0.0,0.0,0.0,0.0,0.0,0.001979956403374672,0.008639149367809296,-0.0016560404328629375,0.0,0.0,0.0,0.0,0.0,0.0,0.0,0.0,0.0,0.07897436618804932,0.12743589282035828,9.957948684692383,0.0,0.0,0.0,0.0,0.0,0.0,0.0,0.0,0.0
1646350604.9632907,8061,1646350604,963141159,,0.0,0.0,0.0,0.0,0.0,0.0,0.0,0.0,0.0,0.0,0.0,0.0,0.0,0.012632600963115692,0.007573884446173906,-0.008047626353800297,0.0,0.0,0.0,0.0,0.0,0.0,0.0,0.0,0.0,0.12025640904903412,-0.01794871874153614,9.613333702087402,0.0,0.0,0.0,0.0,0.0,0.0,0.0,0.0,0.0
1646350604.965617,8062,1646350604,965289082,,0.0,0.0,0.0,0.0,0.0,0.0,0.0,0.0,0.0,0.0,0.0,0.0,0.0,-0.00654215831309557,-0.010535608977079391,-0.014439214020967484,0.0,0.0,0.0,0.0,0.0,0.0,0.0,0.0,0.0,0.2979487180709839,-0.02153846248984337,9.990256309509277,0.0,0.0,0.0,0.0,0.0,0.0,0.0,0.0,0.0
1646350604.967683,8063,1646350604,967436677,,0.0,0.0,0.0,0.0,0.0,0.0,0.0,0.0,0.0,0.0,0.0,0.0,0.0,-0.002281100954860449,0.00544335599988699,0.015388189814984798,0.0,0.0,0.0,0.0,0.0,0.0,0.0,0.0,0.0,0.23333333432674408,0.19923077523708344,9.532564163208008,0.0,0.0,0.0,0.0,0.0,0.0,0.0,0.0,0.0
1646350604.9699588,8064,1646350604,969652719,,0.0,0.0,0.0,0.0,0.0,0.0,0.0,0.0,0.0,0.0,0.0,0.0,0.0,0.019024187698960304,-0.012666137889027596,-0.0368097685277462,0.0,0.0,0.0,0.0,0.0,0.0,0.0,0.0,0.0,0.25487178564071655,-0.014358974993228912,9.887948036193848,0.0,0.0,0.0,0.0,0.0,0.0,0.0,0.0,0.0
1646350604.9721541,8065,1646350604,971834920,,0.0,0.0,0.0,0.0,0.0,0.0,0.0,0.0,0.0,0.0,0.0,0.0,0.0,-0.010803216136991978,0.00544335599988699,0.010061867535114288,0.0,0.0,0.0,0.0,0.0,0.0,0.0,0.0,0.0,0.17769230902194977,-0.31948718428611755,9.527179718017578,0.0,0.0,0.0,0.0,0.0,0.0,0.0,0.0,0.0
1646350604.9743543,8066,1646350604,974042380,,0.0,0.0,0.0,0.0,0.0,0.0,0.0,0.0,0.0,0.0,0.0,0.0,0.0,-0.018260065466165543,-0.013731402345001698,-0.0101781552657485,0.0,0.0,0.0,0.0,0.0,0.0,0.0,0.0,0.0,0.24230769276618958,0.21000000834465027,10.069230079650879,0.0,0.0,0.0,0.0,0.0,0.0,0.0,0.0,0.0
1646350604.9765432,8067,1646350604,976252064,,0.0,0.0,0.0,0.0,0.0,0.0,0.0,0.0,0.0,0.0,0.0,0.0,0.0,-0.008672687225043774,-0.0020134944934397936,0.013257660903036594,0.0,0.0,0.0,0.0,0.0,0.0,0.0,0.0,0.0,0.39307692646980286,-0.17769230902194977,9.697691917419434,0.0,0.0,0.0,0.0,0.0,0.0,0.0,0.0,0.0
1646350604.978662,8068,1646350604,978390198,,0.0,0.0,0.0,0.0,0.0,0.0,0.0,0.0,0.0,0.0,0.0,0.0,0.0,0.001979956403374672,0.00011703448399202898,0.0036702812649309635,0.0,0.0,0.0,0.0,0.0,0.0,0.0,0.0,0.0,0.29615384340286255,0.36615386605262756,9.918461799621582,0.0,0.0,0.0,0.0,0.0,0.0,0.0,0.0,0.0
1646350604.980777,8069,1646350604,980532884,,0.0,0.0,0.0,0.0,0.0,0.0,0.0,0.0,0.0,0.0,0.0,0.0,0.0,-0.0012158364988863468,0.00011703448399202898,0.02391030639410019,0.0,0.0,0.0,0.0,0.0,0.0,0.0,0.0,0.0,0.2674359083175659,-0.17769230902194977,9.661794662475586,0.0,0.0,0.0,0.0,0.0,0.0,0.0,0.0,0.0
1646350604.9831114,8070,1646350604,982740014,,0.0,0.0,0.0,0.0,0.0,0.0,0.0,0.0,0.0,0.0,0.0,0.0,0.0,-0.0012158364988863468,0.004378091543912888,-0.013373949564993382,0.0,0.0,0.0,0.0,0.0,0.0,0.0,0.0,0.0,0.37871795892715454,0.2979487180709839,10.004615783691406,0.0,0.0,0.0,0.0,0.0,0.0,0.0,0.0,0.0
1646350604.9853327,8071,1646350604,984930710,,0.0,0.0,0.0,0.0,0.0,0.0,0.0,0.0,0.0,0.0,0.0,0.0,0.0,-0.018260065466165543,-0.023318784311413765,-0.014439214020967484,0.0,0.0,0.0,0.0,0.0,0.0,0.0,0.0,0.0,0.19025641679763794,0.11666666716337204,9.839487075805664,0.0,0.0,0.0,0.0,0.0,0.0,0.0,0.0,0.0
1646350604.9873812,8072,1646350604,987105807,,0.0,0.0,0.0,0.0,0.0,0.0,0.0,0.0,0.0,0.0,0.0,0.0,0.0,0.01689365692436695,0.006508619990199804,0.015388189814984798,0.0,0.0,0.0,0.0,0.0,0.0,0.0,0.0,0.0,-0.0735897421836853,-0.2153846174478531,9.478717803955078,0.0,0.0,0.0,0.0,0.0,0.0,0.0,0.0,0.0
1646350604.989577,8073,1646350604,989265799,,0.0,0.0,0.0,0.0,0.0,0.0,0.0,0.0,0.0,0.0,0.0,0.0,0.0,0.004110485315322876,0.00544335599988699,0.01112713199108839,0.0,0.0,0.0,0.0,0.0,0.0,0.0,0.0,0.0,0.20102564990520477,0.05564102530479431,9.993846893310547,0.0,0.0,0.0,0.0,0.0,0.0,0.0,0.0,0.0
1646350604.9917579,8074,1646350604,991468263,,0.0,0.0,0.0,0.0,0.0,0.0,0.0,0.0,0.0,0.0,0.0,0.0,0.0,-0.018260065466165543,0.008639149367809296,0.01964924857020378,0.0,0.0,0.0,0.0,0.0,0.0,0.0,0.0,0.0,0.19564102590084076,-0.09333333373069763,9.467948913574219,0.0,0.0,0.0,0.0,0.0,0.0,0.0,0.0,0.0
1646350604.993977,8075,1646350604,993622018,,0.0,0.0,0.0,0.0,0.0,0.0,0.0,0.0,0.0,0.0,0.0,0.0,0.0,0.019024187698960304,0.016095999628305435,0.0058008101768791676,0.0,0.0,0.0,0.0,0.0,0.0,0.0,0.0,0.0,0.25128206610679626,0.20102564990520477,10.088973999023438,0.0,0.0,0.0,0.0,0.0,0.0,0.0,0.0,0.0
1646350604.995972,8076,1646350604,995775133,,0.0,0.0,0.0,0.0,0.0,0.0,0.0,0.0,0.0,0.0,0.0,0.0,0.0,0.0009146920638158917,-0.020122988149523735,0.0047355457209050655,0.0,0.0,0.0,0.0,0.0,0.0,0.0,0.0,0.0,0.3643589913845062,-0.2153846174478531,9.692307472229004,0.0,0.0,0.0,0.0,0.0,0.0,0.0,0.0,0.0
1646350604.998188,8077,1646350604,997926146,,0.0,0.0,0.0,0.0,0.0,0.0,0.0,0.0,0.0,0.0,0.0,0.0,0.0,0.001979956403374672,-0.007339817471802235,-0.017635004594922066,0.0,0.0,0.0,0.0,0.0,0.0,0.0,0.0,0.0,0.3266666829586029,0.15794873237609863,9.870000839233398,0.0,0.0,0.0,0.0,0.0,0.0,0.0,0.0,0.0
1646350605.0004475,8078,1646350605,74641,,0.0,0.0,0.0,0.0,0.0,0.0,0.0,0.0,0.0,0.0,0.0,0.0,0.0,-0.002281100954860449,-0.013731402345001698,-0.011243419721722603,0.0,0.0,0.0,0.0,0.0,0.0,0.0,0.0,0.0,0.2764102518558502,-0.048461541533470154,9.961538314819336,0.0,0.0,0.0,0.0,0.0,0.0,0.0,0.0,0.0
1646350605.0029519,8079,1646350605,2236957,,0.0,0.0,0.0,0.0,0.0,0.0,0.0,0.0,0.0,0.0,0.0,0.0,0.0,-0.02252112329006195,0.015030735172331333,-0.0016560404328629375,0.0,0.0,0.0,0.0,0.0,0.0,0.0,0.0,0.0,0.24589744210243225,0.1471794843673706,9.615128517150879,0.0,0.0,0.0,0.0,0.0,0.0,0.0,0.0,0.0
1646350605.0045428,8080,1646350605,4385845,,0.0,0.0,0.0,0.0,0.0,0.0,0.0,0.0,0.0,0.0,0.0,0.0,0.0,0.004110485315322876,-0.012666137889027596,-0.01976553350687027,0.0,0.0,0.0,0.0,0.0,0.0,0.0,0.0,0.0,0.30153846740722656,0.05025641247630119,9.819743156433105,0.0,0.0,0.0,0.0,0.0,0.0,0.0,0.0,0.0
1646350605.0067542,8081,1646350605,6528335,,0.0,0.0,0.0,0.0,0.0,0.0,0.0,0.0,0.0,0.0,0.0,0.0,0.0,0.014763129875063896,0.01822652854025364,0.018583983182907104,0.0,0.0,0.0,0.0,0.0,0.0,0.0,0.0,0.0,0.3410256505012512,0.22794872522354126,9.642051696777344,0.0,0.0,0.0,0.0,0.0,0.0,0.0,0.0,0.0
1646350605.0088642,8082,1646350605,8717647,,0.0,0.0,0.0,0.0,0.0,0.0,0.0,0.0,0.0,0.0,0.0,0.0,0.0,-0.003346365410834551,-0.003078758716583252,0.0047355457209050655,0.0,0.0,0.0,0.0,0.0,0.0,0.0,0.0,0.0,0.4271794855594635,-0.026923077180981636,9.760512351989746,0.0,0.0,0.0,0.0,0.0,0.0,0.0,0.0,0.0
1646350605.0111809,8083,1646350605,10886144,,0.0,0.0,0.0,0.0,0.0,0.0,0.0,0.0,0.0,0.0,0.0,0.0,0.0,-0.005476894788444042,0.016095999628305435,0.008996603079140186,0.0,0.0,0.0,0.0,0.0,0.0,0.0,0.0,0.0,-0.0735897421836853,-0.25128206610679626,9.521795272827148,0.0,0.0,0.0,0.0,0.0,0.0,0.0,0.0,0.0
1646350605.0134008,8084,1646350605,13066795,,0.0,0.0,0.0,0.0,0.0,0.0,0.0,0.0,0.0,0.0,0.0,0.0,0.0,0.013697865419089794,-0.006274553015828133,-0.018700269982218742,0.0,0.0,0.0,0.0,0.0,0.0,0.0,0.0,0.0,0.17589744925498962,0.14897435903549194,9.878974914550781,0.0,0.0,0.0,0.0,0.0,0.0,0.0,0.0,0.0
1646350605.015611,8085,1646350605,15253300,,0.0,0.0,0.0,0.0,0.0,0.0,0.0,0.0,0.0,0.0,0.0,0.0,0.0,0.0009146920638158917,-0.009470346383750439,-0.016569742932915688,0.0,0.0,0.0,0.0,0.0,0.0,0.0,0.0,0.0,0.010769231244921684,-0.20461538434028625,9.478717803955078,0.0,0.0,0.0,0.0,0.0,0.0,0.0,0.0,0.0
1646350605.017698,8086,1646350605,17404404,,0.0,0.0,0.0,0.0,0.0,0.0,0.0,0.0,0.0,0.0,0.0,0.0,0.0,-0.021455859765410423,0.004378091543912888,0.008996603079140186,0.0,0.0,0.0,0.0,0.0,0.0,0.0,0.0,0.0,0.28358975052833557,0.1741025745868683,9.923846244812012,0.0,0.0,0.0,0.0,0.0,0.0,0.0,0.0,0.0
1646350605.0198066,8087,1646350605,19551493,,0.0,0.0,0.0,0.0,0.0,0.0,0.0,0.0,0.0,0.0,0.0,0.0,0.0,0.012632600963115692,-0.0009482299210503697,0.024975569918751717,0.0,0.0,0.0,0.0,0.0,0.0,0.0,0.0,0.0,0.24051281809806824,-0.20461538434028625,9.690512657165527,0.0,0.0,0.0,0.0,0.0,0.0,0.0,0.0,0.0
1646350605.0219622,8088,1646350605,21715772,,0.0,0.0,0.0,0.0,0.0,0.0,0.0,0.0,0.0,0.0,0.0,0.0,0.0,0.004110485315322876,-0.003078758716583252,0.0036702812649309635,0.0,0.0,0.0,0.0,0.0,0.0,0.0,0.0,0.0,0.31051284074783325,0.16692309081554413,9.934615135192871,0.0,0.0,0.0,0.0,0.0,0.0,0.0,0.0,0.0
1646350605.0242581,8089,1646350605,23926662,,0.0,0.0,0.0,0.0,0.0,0.0,0.0,0.0,0.0,0.0,0.0,0.0,0.0,-0.02252112329006195,-0.03397142514586449,-0.017635004594922066,0.0,0.0,0.0,0.0,0.0,0.0,0.0,0.0,0.0,0.23333333432674408,0.14897435903549194,10.166154861450195,0.0,0.0,0.0,0.0,0.0,0.0,0.0,0.0,0.0
1646350605.026536,8090,1646350605,26134030,,0.0,0.0,0.0,0.0,0.0,0.0,0.0,0.0,0.0,0.0,0.0,0.0,0.0,0.004110485315322876,0.004378091543912888,-0.0027213047724217176,0.0,0.0,0.0,0.0,0.0,0.0,0.0,0.0,0.0,0.12025640904903412,-0.12205128371715546,9.498461723327637,0.0,0.0,0.0,0.0,0.0,0.0,0.0,0.0,0.0
1646350605.028573,8091,1646350605,28320641,,0.0,0.0,0.0,0.0,0.0,0.0,0.0,0.0,0.0,0.0,0.0,0.0,0.0,0.004110485315322876,0.00544335599988699,-0.006982361897826195,0.0,0.0,0.0,0.0,0.0,0.0,0.0,0.0,0.0,0.19205129146575928,0.07717949151992798,9.997435569763184,0.0,0.0,0.0,0.0,0.0,0.0,0.0,0.0,0.0
1646350605.0306966,8092,1646350605,30471486,,0.0,0.0,0.0,0.0,0.0,0.0,0.0,0.0,0.0,0.0,0.0,0.0,0.0,-0.012933745980262756,-0.003078758716583252,-0.02296132780611515,0.0,0.0,0.0,0.0,0.0,0.0,0.0,0.0,0.0,0.14538460969924927,0.07897436618804932,9.573845863342285,0.0,0.0,0.0,0.0,0.0,0.0,0.0,0.0,0.0
1646350605.0328622,8093,1646350605,32624825,,0.0,0.0,0.0,0.0,0.0,0.0,0.0,0.0,0.0,0.0,0.0,0.0,0.0,0.008371543139219284,0.013965470716357231,-0.0005907765007577837,0.0,0.0,0.0,0.0,0.0,0.0,0.0,0.0,0.0,0.2800000011920929,0.10769230872392654,9.992051124572754,0.0,0.0,0.0,0.0,0.0,0.0,0.0,0.0,0.0
1646350605.0350053,8094,1646350605,34773211,,0.0,0.0,0.0,0.0,0.0,0.0,0.0,0.0,0.0,0.0,0.0,0.0,0.0,-0.005476894788444042,-0.02544931322336197,0.014322925359010696,0.0,0.0,0.0,0.0,0.0,0.0,0.0,0.0,0.0,-0.12205128371715546,-0.14538460969924927,9.471538543701172,0.0,0.0,0.0,0.0,0.0,0.0,0.0,0.0,0.0
1646350605.037359,8095,1646350605,37010046,,0.0,0.0,0.0,0.0,0.0,0.0,0.0,0.0,0.0,0.0,0.0,0.0,0.0,-0.017194801941514015,0.003312827320769429,0.012192396447062492,0.0,0.0,0.0,0.0,0.0,0.0,0.0,0.0,0.0,0.07179487496614456,0.19923077523708344,9.997435569763184,0.0,0.0,0.0,0.0,0.0,0.0,0.0,0.0,0.0
1646350605.0394948,8096,1646350605,39181259,,0.0,0.0,0.0,0.0,0.0,0.0,0.0,0.0,0.0,0.0,0.0,0.0,0.0,0.0009146920638158917,-0.01799245923757553,-0.016569742932915688,0.0,0.0,0.0,0.0,0.0,0.0,0.0,0.0,0.0,-0.003589743748307228,-0.2889743745326996,9.582819938659668,0.0,0.0,0.0,0.0,0.0,0.0,0.0,0.0,0.0
1646350605.0416327,8097,1646350605,41337522,,0.0,0.0,0.0,0.0,0.0,0.0,0.0,0.0,0.0,0.0,0.0,0.0,0.0,-0.00015057262498885393,0.00011703448399202898,-0.005917098838835955,0.0,0.0,0.0,0.0,0.0,0.0,0.0,0.0,0.0,0.1974359005689621,0.2153846174478531,9.656410217285156,0.0,0.0,0.0,0.0,0.0,0.0,0.0,0.0,0.0
1646350605.0445461,8098,1646350605,43554264,,0.0,0.0,0.0,0.0,0.0,0.0,0.0,0.0,0.0,0.0,0.0,0.0,0.0,0.006241013761609793,-0.023318784311413765,-0.015504478476941586,0.0,0.0,0.0,0.0,0.0,0.0,0.0,0.0,0.0,0.4146153926849365,-0.08794872462749481,9.765897750854492,0.0,0.0,0.0,0.0,0.0,0.0,0.0,0.0,0.0
1646350605.0459206,8099,1646350605,45695316,,0.0,0.0,0.0,0.0,0.0,0.0,0.0,0.0,0.0,0.0,0.0,0.0,0.0,0.0030452206265181303,0.01822652854025364,0.000474488188046962,0.0,0.0,0.0,0.0,0.0,0.0,0.0,0.0,0.0,-0.007179487496614456,-0.25487178564071655,9.340513229370117,0.0,0.0,0.0,0.0,0.0,0.0,0.0,0.0,0.0
1646350605.0480692,8100,1646350605,47827912,,0.0,0.0,0.0,0.0,0.0,0.0,0.0,0.0,0.0,0.0,0.0,0.0,0.0,0.0009146920638158917,-0.0147966668009758,-0.017635004594922066,0.0,0.0,0.0,0.0,0.0,0.0,0.0,0.0,0.0,0.2943589687347412,0.12025640904903412,9.925641059875488,0.0,0.0,0.0,0.0,0.0,0.0,0.0,0.0,0.0
1646350605.0502274,8101,1646350605,49991863,,0.0,0.0,0.0,0.0,0.0,0.0,0.0,0.0,0.0,0.0,0.0,0.0,0.0,-0.003346365410834551,0.013965470716357231,0.01964924857020378,0.0,0.0,0.0,0.0,0.0,0.0,0.0,0.0,0.0,-0.23153845965862274,-0.12743589282035828,9.620512962341309,0.0,0.0,0.0,0.0,0.0,0.0,0.0,0.0,0.0
1646350605.0524447,8102,1646350605,52183348,,0.0,0.0,0.0,0.0,0.0,0.0,0.0,0.0,0.0,0.0,0.0,0.0,0.0,-0.009737951681017876,0.003312827320769429,-0.009112890809774399,0.0,0.0,0.0,0.0,0.0,0.0,0.0,0.0,0.0,-0.09333333373069763,0.2764102518558502,10.437179565429688,0.0,0.0,0.0,0.0,0.0,0.0,0.0,0.0,0.0
1646350605.0545964,8103,1646350605,54333656,,0.0,0.0,0.0,0.0,0.0,0.0,0.0,0.0,0.0,0.0,0.0,0.0,0.0,0.0009146920638158917,-0.0009482299210503697,0.017518719658255577,0.0,0.0,0.0,0.0,0.0,0.0,0.0,0.0,0.0,0.15076923370361328,-0.23333333432674408,9.232820510864258,0.0,0.0,0.0,0.0,0.0,0.0,0.0,0.0,0.0
1646350605.056777,8104,1646350605,56528818,,0.0,0.0,0.0,0.0,0.0,0.0,0.0,0.0,0.0,0.0,0.0,0.0,0.0,0.01156733650714159,-0.010535608977079391,-0.025091856718063354,0.0,0.0,0.0,0.0,0.0,0.0,0.0,0.0,0.0,0.2710256576538086,-0.046666666865348816,9.703076362609863,0.0,0.0,0.0,0.0,0.0,0.0,0.0,0.0,0.0
1646350605.0588925,8105,1646350605,58653599,,0.0,0.0,0.0,0.0,0.0,0.0,0.0,0.0,0.0,0.0,0.0,0.0,0.0,-0.003346365410834551,0.02142232283949852,0.04095453768968582,0.0,0.0,0.0,0.0,0.0,0.0,0.0,0.0,0.0,0.012564103119075298,-0.14358974993228912,9.54692268371582,0.0,0.0,0.0,0.0,0.0,0.0,0.0,0.0,0.0
1646350605.0610566,8106,1646350605,60800552,,0.0,0.0,0.0,0.0,0.0,0.0,0.0,0.0,0.0,0.0,0.0,0.0,0.0,-0.003346365410834551,-0.003078758716583252,-0.011243419721722603,0.0,0.0,0.0,0.0,0.0,0.0,0.0,0.0,0.0,0.2943589687347412,0.23333333432674408,9.837692260742188,0.0,0.0,0.0,0.0,0.0,0.0,0.0,0.0,0.0
1646350605.0632553,8107,1646350605,62974381,,0.0,0.0,0.0,0.0,0.0,0.0,0.0,0.0,0.0,0.0,0.0,0.0,0.0,0.014763129875063896,-0.011600873433053493,-0.024026591330766678,0.0,0.0,0.0,0.0,0.0,0.0,0.0,0.0,0.0,0.25846153497695923,0.03948718309402466,10.067436218261719,0.0,0.0,0.0,0.0,0.0,0.0,0.0,0.0,0.0
1646350605.0655508,8108,1646350605,65166287,,0.0,0.0,0.0,0.0,0.0,0.0,0.0,0.0,0.0,0.0,0.0,0.0,0.0,-0.016129538416862488,0.003312827320769429,-0.016569742932915688,0.0,0.0,0.0,0.0,0.0,0.0,0.0,0.0,0.0,0.28717949986457825,0.14358974993228912,9.516409873962402,0.0,0.0,0.0,0.0,0.0,0.0,0.0,0.0,0.0
1646350605.067738,8109,1646350605,67378525,,0.0,0.0,0.0,0.0,0.0,0.0,0.0,0.0,0.0,0.0,0.0,0.0,0.0,0.010502072051167488,-0.006274553015828133,-0.008047626353800297,0.0,0.0,0.0,0.0,0.0,0.0,0.0,0.0,0.0,0.2117948830127716,-0.03410256281495094,9.85025691986084,0.0,0.0,0.0,0.0,0.0,0.0,0.0,0.0,0.0
1646350605.0699255,8110,1646350605,69582389,,0.0,0.0,0.0,0.0,0.0,0.0,0.0,0.0,0.0,0.0,0.0,0.0,0.0,-0.012933745980262756,0.013965470716357231,0.012192396447062492,0.0,0.0,0.0,0.0,0.0,0.0,0.0,0.0,0.0,0.37871795892715454,0.25128206610679626,9.642051696777344,0.0,0.0,0.0,0.0,0.0,0.0,0.0,0.0,0.0
1646350605.072051,8111,1646350605,71782252,,0.0,0.0,0.0,0.0,0.0,0.0,0.0,0.0,0.0,0.0,0.0,0.0,0.0,-0.005476894788444042,-0.011600873433053493,0.0015397525858134031,0.0,0.0,0.0,0.0,0.0,0.0,0.0,0.0,0.0,0.2853846251964569,0.2153846174478531,10.214615821838379,0.0,0.0,0.0,0.0,0.0,0.0,0.0,0.0,0.0
1646350605.0742395,8112,1646350605,73943510,,0.0,0.0,0.0,0.0,0.0,0.0,0.0,0.0,0.0,0.0,0.0,0.0,0.0,-0.0012158364988863468,0.010769677348434925,0.0026050168089568615,0.0,0.0,0.0,0.0,0.0,0.0,0.0,0.0,0.0,0.01794871874153614,-0.2853846251964569,9.414102554321289,0.0,0.0,0.0,0.0,0.0,0.0,0.0,0.0,0.0
1646350605.0764637,8113,1646350605,76151257,,0.0,0.0,0.0,0.0,0.0,0.0,0.0,0.0,0.0,0.0,0.0,0.0,0.0,0.004110485315322876,0.022487586364150047,-0.0005907765007577837,0.0,0.0,0.0,0.0,0.0,0.0,0.0,0.0,0.0,0.29076921939849854,0.20820513367652893,10.0369234085083,0.0,0.0,0.0,0.0,0.0,0.0,0.0,0.0,0.0
1646350605.078681,8114,1646350605,78397613,,0.0,0.0,0.0,0.0,0.0,0.0,0.0,0.0,0.0,0.0,0.0,0.0,0.0,-0.007607422769069672,0.00544335599988699,0.014322925359010696,0.0,0.0,0.0,0.0,0.0,0.0,0.0,0.0,0.0,-0.1148717999458313,-0.1561538577079773,9.423076629638672,0.0,0.0,0.0,0.0,0.0,0.0,0.0,0.0,0.0
1646350605.0809073,8115,1646350605,80647178,,0.0,0.0,0.0,0.0,0.0,0.0,0.0,0.0,0.0,0.0,0.0,0.0,0.0,-0.00015057262498885393,0.003312827320769429,-0.0027213047724217176,0.0,0.0,0.0,0.0,0.0,0.0,0.0,0.0,0.0,0.23153845965862274,0.34641027450561523,10.069230079650879,0.0,0.0,0.0,0.0,0.0,0.0,0.0,0.0,0.0
1646350605.0829635,8116,1646350605,82781221,,0.0,0.0,0.0,0.0,0.0,0.0,0.0,0.0,0.0,0.0,0.0,0.0,0.0,-0.007607422769069672,0.008639149367809296,-0.006982361897826195,0.0,0.0,0.0,0.0,0.0,0.0,0.0,0.0,0.0,0.08076923340559006,0.03769230842590332,9.95974349975586,0.0,0.0,0.0,0.0,0.0,0.0,0.0,0.0,0.0
1646350605.0858943,8117,1646350605,84930175,,0.0,0.0,0.0,0.0,0.0,0.0,0.0,0.0,0.0,0.0,0.0,0.0,0.0,0.014763129875063896,0.011834941804409027,0.0047355457209050655,0.0,0.0,0.0,0.0,0.0,0.0,0.0,0.0,0.0,0.4092307686805725,0.23692308366298676,9.661794662475586,0.0,0.0,0.0,0.0,0.0,0.0,0.0,0.0,0.0
1646350605.087309,8118,1646350605,87084717,,0.0,0.0,0.0,0.0,0.0,0.0,0.0,0.0,0.0,0.0,0.0,0.0,0.0,-0.018260065466165543,-0.0147966668009758,0.0036702812649309635,0.0,0.0,0.0,0.0,0.0,0.0,0.0,0.0,0.0,0.20461538434028625,0.11128205060958862,10.132050514221191,0.0,0.0,0.0,0.0,0.0,0.0,0.0,0.0,0.0
1646350605.0894606,8119,1646350605,89236248,,0.0,0.0,0.0,0.0,0.0,0.0,0.0,0.0,0.0,0.0,0.0,0.0,0.0,-0.01186848059296608,0.013965470716357231,0.0036702812649309635,0.0,0.0,0.0,0.0,0.0,0.0,0.0,0.0,0.0,-0.02153846248984337,-0.14538460969924927,9.353076934814453,0.0,0.0,0.0,0.0,0.0,0.0,0.0,0.0,0.0
1646350605.0916274,8120,1646350605,91407950,,0.0,0.0,0.0,0.0,0.0,0.0,0.0,0.0,0.0,0.0,0.0,0.0,0.0,0.010502072051167488,-0.0147966668009758,-0.018700269982218742,0.0,0.0,0.0,0.0,0.0,0.0,0.0,0.0,0.0,0.19564102590084076,0.03589743748307228,10.14640998840332,0.0,0.0,0.0,0.0,0.0,0.0,0.0,0.0,0.0
1646350605.093975,8121,1646350605,93588061,,0.0,0.0,0.0,0.0,0.0,0.0,0.0,0.0,0.0,0.0,0.0,0.0,0.0,0.001979956403374672,0.006508619990199804,0.015388189814984798,0.0,0.0,0.0,0.0,0.0,0.0,0.0,0.0,0.0,0.23333333432674408,-0.0735897421836853,9.374615669250488,0.0,0.0,0.0,0.0,0.0,0.0,0.0,0.0,0.0
1646350605.0961318,8122,1646350605,95786525,,0.0,0.0,0.0,0.0,0.0,0.0,0.0,0.0,0.0,0.0,0.0,0.0,0.0,-0.00015057262498885393,0.003312827320769429,0.000474488188046962,0.0,0.0,0.0,0.0,0.0,0.0,0.0,0.0,0.0,0.3320513069629669,0.2710256576538086,10.020769119262695,0.0,0.0,0.0,0.0,0.0,0.0,0.0,0.0,0.0
1646350605.0983346,8123,1646350605,98012316,,0.0,0.0,0.0,0.0,0.0,0.0,0.0,0.0,0.0,0.0,0.0,0.0,0.0,-0.00441163033246994,0.006508619990199804,0.01112713199108839,0.0,0.0,0.0,0.0,0.0,0.0,0.0,0.0,0.0,0.4038461744785309,-0.18666666746139526,9.706666946411133,0.0,0.0,0.0,0.0,0.0,0.0,0.0,0.0,0.0
1646350605.100426,8124,1646350605,100188835,,0.0,0.0,0.0,0.0,0.0,0.0,0.0,0.0,0.0,0.0,0.0,0.0,0.0,-0.0012158364988863468,-0.007339817471802235,0.000474488188046962,0.0,0.0,0.0,0.0,0.0,0.0,0.0,0.0,0.0,0.24948717653751373,0.33384618163108826,10.133846282958984,0.0,0.0,0.0,0.0,0.0,0.0,0.0,0.0,0.0
1646350605.102549,8125,1646350605,102351253,,0.0,0.0,0.0,0.0,0.0,0.0,0.0,0.0,0.0,0.0,0.0,0.0,0.0,0.02435050904750824,-0.02118825353682041,-0.004851834382861853,0.0,0.0,0.0,0.0,0.0,0.0,0.0,0.0,0.0,0.14358974993228912,-0.22794872522354126,9.534358978271484,0.0,0.0,0.0,0.0,0.0,0.0,0.0,0.0,0.0
1646350605.1047583,8126,1646350605,104518765,,0.0,0.0,0.0,0.0,0.0,0.0,0.0,0.0,0.0,0.0,0.0,0.0,0.0,-0.009737951681017876,0.015030735172331333,0.030301889404654503,0.0,0.0,0.0,0.0,0.0,0.0,0.0,0.0,0.0,0.3123077154159546,0.23333333432674408,9.681538581848145,0.0,0.0,0.0,0.0,0.0,0.0,0.0,0.0,0.0
1646350605.1069522,8127,1646350605,106676259,,0.0,0.0,0.0,0.0,0.0,0.0,0.0,0.0,0.0,0.0,0.0,0.0,0.0,0.010502072051167488,0.00011703448399202898,-0.014439214020967484,0.0,0.0,0.0,0.0,0.0,0.0,0.0,0.0,0.0,0.3715384900569916,-0.1238461583852768,9.835898399353027,0.0,0.0,0.0,0.0,0.0,0.0,0.0,0.0,0.0
1646350605.1091962,8128,1646350605,108876431,,0.0,0.0,0.0,0.0,0.0,0.0,0.0,0.0,0.0,0.0,0.0,0.0,0.0,-0.009737951681017876,-0.0009482299210503697,0.0036702812649309635,0.0,0.0,0.0,0.0,0.0,0.0,0.0,0.0,0.0,0.09333333373069763,-0.3033333420753479,9.268717765808105,0.0,0.0,0.0,0.0,0.0,0.0,0.0,0.0,0.0
1646350605.1113045,8129,1646350605,111087265,,0.0,0.0,0.0,0.0,0.0,0.0,0.0,0.0,0.0,0.0,0.0,0.0,0.0,0.008371543139219284,-0.0009482299210503697,0.0015397525858134031,0.0,0.0,0.0,0.0,0.0,0.0,0.0,0.0,0.0,0.25128206610679626,0.1741025745868683,10.216410636901855,0.0,0.0,0.0,0.0,0.0,0.0,0.0,0.0,0.0
1646350605.113613,8130,1646350605,113240989,,0.0,0.0,0.0,0.0,0.0,0.0,0.0,0.0,0.0,0.0,0.0,0.0,0.0,-0.020390594378113747,-0.013731402345001698,-0.005917098838835955,0.0,0.0,0.0,0.0,0.0,0.0,0.0,0.0,0.0,-0.17589744925498962,-0.18666666746139526,9.374615669250488,0.0,0.0,0.0,0.0,0.0,0.0,0.0,0.0,0.0
1646350605.115721,8131,1646350605,115418942,,0.0,0.0,0.0,0.0,0.0,0.0,0.0,0.0,0.0,0.0,0.0,0.0,0.0,0.022219980135560036,0.01822652854025364,-0.005917098838835955,0.0,0.0,0.0,0.0,0.0,0.0,0.0,0.0,0.0,0.22435897588729858,0.1382051259279251,10.045896530151367,0.0,0.0,0.0,0.0,0.0,0.0,0.0,0.0,0.0
1646350605.1178718,8132,1646350605,117693684,,0.0,0.0,0.0,0.0,0.0,0.0,0.0,0.0,0.0,0.0,0.0,0.0,0.0,-0.003346365410834551,-0.004144023172557354,0.013257660903036594,0.0,0.0,0.0,0.0,0.0,0.0,0.0,0.0,0.0,-0.007179487496614456,-0.2800000011920929,9.338717460632324,0.0,0.0,0.0,0.0,0.0,0.0,0.0,0.0,0.0
1646350605.1202555,8133,1646350605,119891269,,0.0,0.0,0.0,0.0,0.0,0.0,0.0,0.0,0.0,0.0,0.0,0.0,0.0,0.0030452206265181303,-0.006274553015828133,-0.0005907765007577837,0.0,0.0,0.0,0.0,0.0,0.0,0.0,0.0,0.0,0.2620512843132019,0.2153846174478531,9.64923095703125,0.0,0.0,0.0,0.0,0.0,0.0,0.0,0.0,0.0
1646350605.1224787,8134,1646350605,122138343,,0.0,0.0,0.0,0.0,0.0,0.0,0.0,0.0,0.0,0.0,0.0,0.0,0.0,0.007306278217583895,-0.011600873433053493,-0.0037865692283958197,0.0,0.0,0.0,0.0,0.0,0.0,0.0,0.0,0.0,0.47564104199409485,-0.12564103305339813,9.577435493469238,0.0,0.0,0.0,0.0,0.0,0.0,0.0,0.0,0.0
1646350605.1254547,8135,1646350605,124348341,,0.0,0.0,0.0,0.0,0.0,0.0,0.0,0.0,0.0,0.0,0.0,0.0,0.0,-0.021455859765410423,0.00544335599988699,-0.006982361897826195,0.0,0.0,0.0,0.0,0.0,0.0,0.0,0.0,0.0,0.2889743745326996,0.3033333420753479,9.782051086425781,0.0,0.0,0.0,0.0,0.0,0.0,0.0,0.0,0.0
1646350605.1268039,8136,1646350605,126572938,,0.0,0.0,0.0,0.0,0.0,0.0,0.0,0.0,0.0,0.0,0.0,0.0,0.0,0.01156733650714159,-0.0009482299210503697,0.0036702812649309635,0.0,0.0,0.0,0.0,0.0,0.0,0.0,0.0,0.0,0.2853846251964569,-0.1884615421295166,9.500256538391113,0.0,0.0,0.0,0.0,0.0,0.0,0.0,0.0,0.0
1646350605.1289864,8137,1646350605,128724800,,0.0,0.0,0.0,0.0,0.0,0.0,0.0,0.0,0.0,0.0,0.0,0.0,0.0,0.0009146920638158917,0.02461811527609825,0.024975569918751717,0.0,0.0,0.0,0.0,0.0,0.0,0.0,0.0,0.0,-0.0412820540368557,-0.21717949211597443,9.247179985046387,0.0,0.0,0.0,0.0,0.0,0.0,0.0,0.0,0.0
1646350605.1310723,8138,1646350605,130891590,,0.0,0.0,0.0,0.0,0.0,0.0,0.0,0.0,0.0,0.0,0.0,0.0,0.0,0.005175749771296978,-0.013731402345001698,-0.012308684177696705,0.0,0.0,0.0,0.0,0.0,0.0,0.0,0.0,0.0,0.028717949986457825,0.17230769991874695,10.29897403717041,0.0,0.0,0.0,0.0,0.0,0.0,0.0,0.0,0.0
1646350605.1333697,8139,1646350605,133098565,,0.0,0.0,0.0,0.0,0.0,0.0,0.0,0.0,0.0,0.0,0.0,0.0,0.0,-0.009737951681017876,-0.003078758716583252,0.015388189814984798,0.0,0.0,0.0,0.0,0.0,0.0,0.0,0.0,0.0,0.3679487407207489,-0.26923078298568726,9.327948570251465,0.0,0.0,0.0,0.0,0.0,0.0,0.0,0.0,0.0
1646350605.1355302,8140,1646350605,135259305,,0.0,0.0,0.0,0.0,0.0,0.0,0.0,0.0,0.0,0.0,0.0,0.0,0.0,0.0030452206265181303,-0.019057724624872208,0.0026050168089568615,0.0,0.0,0.0,0.0,0.0,0.0,0.0,0.0,0.0,0.2710256576538086,0.2028205245733261,10.002820014953613,0.0,0.0,0.0,0.0,0.0,0.0,0.0,0.0,0.0
1646350605.1377807,8141,1646350605,137433549,,0.0,0.0,0.0,0.0,0.0,0.0,0.0,0.0,0.0,0.0,0.0,0.0,0.0,0.015828393399715424,0.02142232283949852,0.01112713199108839,0.0,0.0,0.0,0.0,0.0,0.0,0.0,0.0,0.0,0.1651282161474228,-0.3087179660797119,9.539743423461914,0.0,0.0,0.0,0.0,0.0,0.0,0.0,0.0,0.0
1646350605.1400962,8142,1646350605,139671687,,0.0,0.0,0.0,0.0,0.0,0.0,0.0,0.0,0.0,0.0,0.0,0.0,0.0,-0.01506427489221096,0.006508619990199804,0.0036702812649309635,0.0,0.0,0.0,0.0,0.0,0.0,0.0,0.0,0.0,-0.02153846248984337,0.2476923167705536,10.347434997558594,0.0,0.0,0.0,0.0,0.0,0.0,0.0,0.0,0.0
1646350605.1423688,8143,1646350605,141943497,,0.0,0.0,0.0,0.0,0.0,0.0,0.0,0.0,0.0,0.0,0.0,0.0,0.0,-0.0012158364988863468,-0.009470346383750439,-0.0037865692283958197,0.0,0.0,0.0,0.0,0.0,0.0,0.0,0.0,0.0,-0.09333333373069763,0.25487178564071655,10.214615821838379,0.0,0.0,0.0,0.0,0.0,0.0,0.0,0.0,0.0
1646350605.1446202,8144,1646350605,144166343,,0.0,0.0,0.0,0.0,0.0,0.0,0.0,0.0,0.0,0.0,0.0,0.0,0.0,-0.021455859765410423,0.004378091543912888,-0.0005907765007577837,0.0,0.0,0.0,0.0,0.0,0.0,0.0,0.0,0.0,-0.016153845936059952,0.09871795028448105,9.773077011108398,0.0,0.0,0.0,0.0,0.0,0.0,0.0,0.0,0.0
1646350605.147061,8145,1646350605,146394469,,0.0,0.0,0.0,0.0,0.0,0.0,0.0,0.0,0.0,0.0,0.0,0.0,0.0,0.023285245522856712,-0.003078758716583252,-0.005917098838835955,0.0,0.0,0.0,0.0,0.0,0.0,0.0,0.0,0.0,0.2979487180709839,0.16871795058250427,9.947179794311523,0.0,0.0,0.0,0.0,0.0,0.0,0.0,0.0,0.0
1646350605.1491096,8146,1646350605,148598415,,0.0,0.0,0.0,0.0,0.0,0.0,0.0,0.0,0.0,0.0,0.0,0.0,0.0,-0.01186848059296608,-0.0009482299210503697,0.015388189814984798,0.0,0.0,0.0,0.0,0.0,0.0,0.0,0.0,0.0,0.3715384900569916,0.032307691872119904,9.410512924194336,0.0,0.0,0.0,0.0,0.0,0.0,0.0,0.0,0.0
1646350605.151433,8147,1646350605,150871735,,0.0,0.0,0.0,0.0,0.0,0.0,0.0,0.0,0.0,0.0,0.0,0.0,0.0,0.005175749771296978,0.00224756239913404,0.0015397525858134031,0.0,0.0,0.0,0.0,0.0,0.0,0.0,0.0,0.0,0.36076924204826355,0.2064102590084076,9.9884614944458,0.0,0.0,0.0,0.0,0.0,0.0,0.0,0.0,0.0
1646350605.1536098,8148,1646350605,153204606,,0.0,0.0,0.0,0.0,0.0,0.0,0.0,0.0,0.0,0.0,0.0,0.0,0.0,0.0030452206265181303,0.011834941804409027,0.007931338623166084,0.0,0.0,0.0,0.0,0.0,0.0,0.0,0.0,0.0,0.44871795177459717,-0.3625641167163849,9.10359001159668,0.0,0.0,0.0,0.0,0.0,0.0,0.0,0.0,0.0
1646350605.1558738,8149,1646350605,155407274,,0.0,0.0,0.0,0.0,0.0,0.0,0.0,0.0,0.0,0.0,0.0,0.0,0.0,0.009436807595193386,-0.0020134944934397936,-0.021896062418818474,0.0,0.0,0.0,0.0,0.0,0.0,0.0,0.0,0.0,0.23153845965862274,0.1651282161474228,10.108718872070312,0.0,0.0,0.0,0.0,0.0,0.0,0.0,0.0,0.0
1646350605.1580253,8150,1646350605,157612629,,0.0,0.0,0.0,0.0,0.0,0.0,0.0,0.0,0.0,0.0,0.0,0.0,0.0,-0.013999010436236858,0.00011703448399202898,0.014322925359010696,0.0,0.0,0.0,0.0,0.0,0.0,0.0,0.0,0.0,0.5043590068817139,-0.06641025841236115,9.665384292602539,0.0,0.0,0.0,0.0,0.0,0.0,0.0,0.0,0.0
1646350605.1601741,8151,1646350605,159818794,,0.0,0.0,0.0,0.0,0.0,0.0,0.0,0.0,0.0,0.0,0.0,0.0,0.0,0.0009146920638158917,-0.009470346383750439,0.0047355457209050655,0.0,0.0,0.0,0.0,0.0,0.0,0.0,0.0,0.0,0.1794871836900711,-0.03948718309402466,9.760512351989746,0.0,0.0,0.0,0.0,0.0,0.0,0.0,0.0,0.0
1646350605.1624782,8152,1646350605,162047765,,0.0,0.0,0.0,0.0,0.0,0.0,0.0,0.0,0.0,0.0,0.0,0.0,0.0,-0.007607422769069672,0.012900206260383129,-0.011243419721722603,0.0,0.0,0.0,0.0,0.0,0.0,0.0,0.0,0.0,0.34282052516937256,0.0412820540368557,9.896923065185547,0.0,0.0,0.0,0.0,0.0,0.0,0.0,0.0,0.0
1646350605.164655,8153,1646350605,164267981,,0.0,0.0,0.0,0.0,0.0,0.0,0.0,0.0,0.0,0.0,0.0,0.0,0.0,0.014763129875063896,0.00011703448399202898,0.013257660903036594,0.0,0.0,0.0,0.0,0.0,0.0,0.0,0.0,0.0,0.21000000834465027,-0.3033333420753479,9.022820472717285,0.0,0.0,0.0,0.0,0.0,0.0,0.0,0.0,0.0
1646350605.16824,8154,1646350605,166489845,,0.0,0.0,0.0,0.0,0.0,0.0,0.0,0.0,0.0,0.0,0.0,0.0,0.0,-0.00654215831309557,-0.0009482299210503697,-0.015504478476941586,0.0,0.0,0.0,0.0,0.0,0.0,0.0,0.0,0.0,0.046666666865348816,0.06461538374423981,10.040512084960938,0.0,0.0,0.0,0.0,0.0,0.0,0.0,0.0,0.0
1646350605.1691449,8155,1646350605,168720482,,0.0,0.0,0.0,0.0,0.0,0.0,0.0,0.0,0.0,0.0,0.0,0.0,0.0,-0.008672687225043774,0.004378091543912888,0.0015397525858134031,0.0,0.0,0.0,0.0,0.0,0.0,0.0,0.0,0.0,0.40205129981040955,-0.0412820540368557,9.615128517150879,0.0,0.0,0.0,0.0,0.0,0.0,0.0,0.0,0.0
1646350605.17136,8156,1646350605,170945504,,0.0,0.0,0.0,0.0,0.0,0.0,0.0,0.0,0.0,0.0,0.0,0.0,0.0,0.006241013761609793,-0.004144023172557354,-0.018700269982218742,0.0,0.0,0.0,0.0,0.0,0.0,0.0,0.0,0.0,0.09512820839881897,0.35179489850997925,9.884359359741211,0.0,0.0,0.0,0.0,0.0,0.0,0.0,0.0,0.0
1646350605.1735504,8157,1646350605,173174821,,0.0,0.0,0.0,0.0,0.0,0.0,0.0,0.0,0.0,0.0,0.0,0.0,0.0,0.001979956403374672,0.007573884446173906,-0.0005907765007577837,0.0,0.0,0.0,0.0,0.0,0.0,0.0,0.0,0.0,0.05205128341913223,0.03769230842590332,10.110512733459473,0.0,0.0,0.0,0.0,0.0,0.0,0.0,0.0,0.0
1646350605.1756694,8158,1646350605,175387520,,0.0,0.0,0.0,0.0,0.0,0.0,0.0,0.0,0.0,0.0,0.0,0.0,0.0,0.015828393399715424,-0.007339817471802235,-0.009112890809774399,0.0,0.0,0.0,0.0,0.0,0.0,0.0,0.0,0.0,-0.3805128335952759,-0.14000000059604645,9.65999984741211,0.0,0.0,0.0,0.0,0.0,0.0,0.0,0.0,0.0
1646350605.1779888,8159,1646350605,177610620,,0.0,0.0,0.0,0.0,0.0,0.0,0.0,0.0,0.0,0.0,0.0,0.0,0.0,-0.009737951681017876,-0.009470346383750439,-0.016569742932915688,0.0,0.0,0.0,0.0,0.0,0.0,0.0,0.0,0.0,-0.05025641247630119,0.33743590116500854,10.510769844055176,0.0,0.0,0.0,0.0,0.0,0.0,0.0,0.0,0.0
1646350605.1802294,8160,1646350605,179864360,,0.0,0.0,0.0,0.0,0.0,0.0,0.0,0.0,0.0,0.0,0.0,0.0,0.0,0.010502072051167488,-0.008405081927776337,0.0036702812649309635,0.0,0.0,0.0,0.0,0.0,0.0,0.0,0.0,0.0,-0.032307691872119904,0.18487180769443512,10.175127983093262,0.0,0.0,0.0,0.0,0.0,0.0,0.0,0.0,0.0
1646350605.182556,8161,1646350605,182066356,,0.0,0.0,0.0,0.0,0.0,0.0,0.0,0.0,0.0,0.0,0.0,0.0,0.0,-0.0012158364988863468,0.015030735172331333,-0.004851834382861853,0.0,0.0,0.0,0.0,0.0,0.0,0.0,0.0,0.0,0.32487180829048157,0.15974359214305878,9.672564506530762,0.0,0.0,0.0,0.0,0.0,0.0,0.0,0.0,0.0
1646350605.1848273,8162,1646350605,184305843,,0.0,0.0,0.0,0.0,0.0,0.0,0.0,0.0,0.0,0.0,0.0,0.0,0.0,-0.01506427489221096,0.015030735172331333,0.012192396447062492,0.0,0.0,0.0,0.0,0.0,0.0,0.0,0.0,0.0,0.5761538743972778,-0.19564102590084076,9.365640640258789,0.0,0.0,0.0,0.0,0.0,0.0,0.0,0.0,0.0
1646350605.1870315,8163,1646350605,186574814,,0.0,0.0,0.0,0.0,0.0,0.0,0.0,0.0,0.0,0.0,0.0,0.0,0.0,0.004110485315322876,0.006508619990199804,0.000474488188046962,0.0,0.0,0.0,0.0,0.0,0.0,0.0,0.0,0.0,0.5438461303710938,0.023333333432674408,9.283077239990234,0.0,0.0,0.0,0.0,0.0,0.0,0.0,0.0,0.0
1646350605.1898048,8164,1646350605,188816043,,0.0,0.0,0.0,0.0,0.0,0.0,0.0,0.0,0.0,0.0,0.0,0.0,0.0,-0.003346365410834551,0.009704413823783398,-0.014439214020967484,0.0,0.0,0.0,0.0,0.0,0.0,0.0,0.0,0.0,0.4720512926578522,0.03589743748307228,9.728204727172852,0.0,0.0,0.0,0.0,0.0,0.0,0.0,0.0,0.0
1646350605.1913483,8165,1646350605,191026393,,0.0,0.0,0.0,0.0,0.0,0.0,0.0,0.0,0.0,0.0,0.0,0.0,0.0,-0.00654215831309557,0.006508619990199804,0.015388189814984798,0.0,0.0,0.0,0.0,0.0,0.0,0.0,0.0,0.0,0.030512820929288864,-0.21358974277973175,9.412307739257812,0.0,0.0,0.0,0.0,0.0,0.0,0.0,0.0,0.0
1646350605.1937199,8166,1646350605,193232211,,0.0,0.0,0.0,0.0,0.0,0.0,0.0,0.0,0.0,0.0,0.0,0.0,0.0,0.005175749771296978,-0.004144023172557354,0.0047355457209050655,0.0,0.0,0.0,0.0,0.0,0.0,0.0,0.0,0.0,-0.14179487526416779,0.2800000011920929,10.417435646057129,0.0,0.0,0.0,0.0,0.0,0.0,0.0,0.0,0.0
1646350605.1960244,8167,1646350605,195634882,,0.0,0.0,0.0,0.0,0.0,0.0,0.0,0.0,0.0,0.0,0.0,0.0,0.0,0.001979956403374672,-0.02118825353682041,0.021779777482151985,0.0,0.0,0.0,0.0,0.0,0.0,0.0,0.0,0.0,0.6300000548362732,-0.3571794927120209,9.141282081604004,0.0,0.0,0.0,0.0,0.0,0.0,0.0,0.0,0.0
1646350605.198922,8168,1646350605,197854145,,0.0,0.0,0.0,0.0,0.0,0.0,0.0,0.0,0.0,0.0,0.0,0.0,0.0,0.0009146920638158917,0.013965470716357231,-0.006982361897826195,0.0,0.0,0.0,0.0,0.0,0.0,0.0,0.0,0.0,0.003589743748307228,0.27820512652397156,10.14102554321289,0.0,0.0,0.0,0.0,0.0,0.0,0.0,0.0,0.0
1646350605.2008443,8169,1646350605,200142502,,0.0,0.0,0.0,0.0,0.0,0.0,0.0,0.0,0.0,0.0,0.0,0.0,0.0,0.012632600963115692,-0.008405081927776337,-0.031483445316553116,0.0,0.0,0.0,0.0,0.0,0.0,0.0,0.0,0.0,0.20461538434028625,-0.03589743748307228,9.764102935791016,0.0,0.0,0.0,0.0,0.0,0.0,0.0,0.0,0.0
1646350605.202764,8170,1646350605,202379450,,0.0,0.0,0.0,0.0,0.0,0.0,0.0,0.0,0.0,0.0,0.0,0.0,0.0,-0.017194801941514015,-0.003078758716583252,0.015388189814984798,0.0,0.0,0.0,0.0,0.0,0.0,0.0,0.0,0.0,-0.09512820839881897,-0.1382051259279251,9.572051048278809,0.0,0.0,0.0,0.0,0.0,0.0,0.0,0.0,0.0
1646350605.2051144,8171,1646350605,204636103,,0.0,0.0,0.0,0.0,0.0,0.0,0.0,0.0,0.0,0.0,0.0,0.0,0.0,0.004110485315322876,0.006508619990199804,-0.0005907765007577837,0.0,0.0,0.0,0.0,0.0,0.0,0.0,0.0,0.0,-0.29615384340286255,0.25128206610679626,10.447948455810547,0.0,0.0,0.0,0.0,0.0,0.0,0.0,0.0,0.0
1646350605.207248,8172,1646350605,206849059,,0.0,0.0,0.0,0.0,0.0,0.0,0.0,0.0,0.0,0.0,0.0,0.0,0.0,-0.012933745980262756,0.006508619990199804,-0.004851834382861853,0.0,0.0,0.0,0.0,0.0,0.0,0.0,0.0,0.0,0.044871795922517776,0.08435897529125214,10.155384063720703,0.0,0.0,0.0,0.0,0.0,0.0,0.0,0.0,0.0
1646350605.2102933,8173,1646350605,209147240,,0.0,0.0,0.0,0.0,0.0,0.0,0.0,0.0,0.0,0.0,0.0,0.0,0.0,0.013697865419089794,0.007573884446173906,0.008996603079140186,0.0,0.0,0.0,0.0,0.0,0.0,0.0,0.0,0.0,0.12205128371715546,0.45769232511520386,10.196666717529297,0.0,0.0,0.0,0.0,0.0,0.0,0.0,0.0,0.0
1646350605.2117412,8174,1646350605,211442450,,0.0,0.0,0.0,0.0,0.0,0.0,0.0,0.0,0.0,0.0,0.0,0.0,0.0,-0.005476894788444042,-0.008405081927776337,0.0036702812649309635,0.0,0.0,0.0,0.0,0.0,0.0,0.0,0.0,0.0,0.39307692646980286,-0.30153846740722656,9.64564037322998,0.0,0.0,0.0,0.0,0.0,0.0,0.0,0.0,0.0
1646350605.214128,8175,1646350605,213691226,,0.0,0.0,0.0,0.0,0.0,0.0,0.0,0.0,0.0,0.0,0.0,0.0,0.0,0.02435050904750824,-0.003078758716583252,0.01112713199108839,0.0,0.0,0.0,0.0,0.0,0.0,0.0,0.0,0.0,-0.08076923340559006,-0.17769230902194977,9.503846168518066,0.0,0.0,0.0,0.0,0.0,0.0,0.0,0.0,0.0
1646350605.2163804,8176,1646350605,215965470,,0.0,0.0,0.0,0.0,0.0,0.0,0.0,0.0,0.0,0.0,0.0,0.0,0.0,-0.008672687225043774,0.00544335599988699,-0.014439214020967484,0.0,0.0,0.0,0.0,0.0,0.0,0.0,0.0,0.0,0.4828205108642578,-0.07538461685180664,9.520000457763672,0.0,0.0,0.0,0.0,0.0,0.0,0.0,0.0,0.0
1646350605.2186115,8177,1646350605,218234872,,0.0,0.0,0.0,0.0,0.0,0.0,0.0,0.0,0.0,0.0,0.0,0.0,0.0,-0.0012158364988863468,0.00544335599988699,0.010061867535114288,0.0,0.0,0.0,0.0,0.0,0.0,0.0,0.0,0.0,0.29076921939849854,-0.3733333349227905,8.983333587646484,0.0,0.0,0.0,0.0,0.0,0.0,0.0,0.0,0.0
1646350605.2208967,8178,1646350605,220444015,,0.0,0.0,0.0,0.0,0.0,0.0,0.0,0.0,0.0,0.0,0.0,0.0,0.0,0.010502072051167488,-0.015861930325627327,-0.004851834382861853,0.0,0.0,0.0,0.0,0.0,0.0,0.0,0.0,0.0,0.09153846651315689,0.01794871874153614,10.121281623840332,0.0,0.0,0.0,0.0,0.0,0.0,0.0,0.0,0.0
1646350605.222973,8179,1646350605,222662944,,0.0,0.0,0.0,0.0,0.0,0.0,0.0,0.0,0.0,0.0,0.0,0.0,0.0,-0.00441163033246994,0.001182297826744616,0.008996603079140186,0.0,0.0,0.0,0.0,0.0,0.0,0.0,0.0,0.0,0.4505128264427185,-0.19923077523708344,9.581025123596191,0.0,0.0,0.0,0.0,0.0,0.0,0.0,0.0,0.0
1646350605.2252069,8180,1646350605,224885449,,0.0,0.0,0.0,0.0,0.0,0.0,0.0,0.0,0.0,0.0,0.0,0.0,0.0,0.005175749771296978,0.001182297826744616,-0.012308684177696705,0.0,0.0,0.0,0.0,0.0,0.0,0.0,0.0,0.0,-0.012564103119075298,0.3625641167163849,10.20025634765625,0.0,0.0,0.0,0.0,0.0,0.0,0.0,0.0,0.0
1646350605.2275748,8181,1646350605,227146261,,0.0,0.0,0.0,0.0,0.0,0.0,0.0,0.0,0.0,0.0,0.0,0.0,0.0,-0.005476894788444042,0.009704413823783398,0.000474488188046962,0.0,0.0,0.0,0.0,0.0,0.0,0.0,0.0,0.0,0.14538460969924927,-0.007179487496614456,10.153590202331543,0.0,0.0,0.0,0.0,0.0,0.0,0.0,0.0,0.0
1646350605.229918,8182,1646350605,229383595,,0.0,0.0,0.0,0.0,0.0,0.0,0.0,0.0,0.0,0.0,0.0,0.0,0.0,0.012632600963115692,-0.024384047836065292,-0.009112890809774399,0.0,0.0,0.0,0.0,0.0,0.0,0.0,0.0,0.0,0.24948717653751373,0.21358974277973175,9.94359016418457,0.0,0.0,0.0,0.0,0.0,0.0,0.0,0.0,0.0
1646350605.2320302,8183,1646350605,231645770,,0.0,0.0,0.0,0.0,0.0,0.0,0.0,0.0,0.0,0.0,0.0,0.0,0.0,0.0009146920638158917,0.012900206260383129,0.000474488188046962,0.0,0.0,0.0,0.0,0.0,0.0,0.0,0.0,0.0,0.001794871874153614,0.2620512843132019,10.289999961853027,0.0,0.0,0.0,0.0,0.0,0.0,0.0,0.0,0.0
1646350605.2348156,8184,1646350605,233909129,,0.0,0.0,0.0,0.0,0.0,0.0,0.0,0.0,0.0,0.0,0.0,0.0,0.0,-0.00654215831309557,-0.006274553015828133,0.01964924857020378,0.0,0.0,0.0,0.0,0.0,0.0,0.0,0.0,0.0,0.27820512652397156,-0.25487178564071655,8.857691764831543,0.0,0.0,0.0,0.0,0.0,0.0,0.0,0.0,0.0
1646350605.2365255,8185,1646350605,236149847,,0.0,0.0,0.0,0.0,0.0,0.0,0.0,0.0,0.0,0.0,0.0,0.0,0.0,0.0030452206265181303,0.008639149367809296,-0.011243419721722603,0.0,0.0,0.0,0.0,0.0,0.0,0.0,0.0,0.0,-0.18666666746139526,0.3535897731781006,10.629230499267578,0.0,0.0,0.0,0.0,0.0,0.0,0.0,0.0,0.0
1646350605.2387536,8186,1646350605,238405240,,0.0,0.0,0.0,0.0,0.0,0.0,0.0,0.0,0.0,0.0,0.0,0.0,0.0,-0.00441163033246994,0.00224756239913404,-0.009112890809774399,0.0,0.0,0.0,0.0,0.0,0.0,0.0,0.0,0.0,-0.2800000011920929,-0.1238461583852768,9.914872169494629,0.0,0.0,0.0,0.0,0.0,0.0,0.0,0.0,0.0
1646350605.2409394,8187,1646350605,240637095,,0.0,0.0,0.0,0.0,0.0,0.0,0.0,0.0,0.0,0.0,0.0,0.0,0.0,0.008371543139219284,-0.007339817471802235,-0.011243419721722603,0.0,0.0,0.0,0.0,0.0,0.0,0.0,0.0,0.0,0.4002564251422882,0.2297435998916626,9.923846244812012,0.0,0.0,0.0,0.0,0.0,0.0,0.0,0.0,0.0
1646350605.2431533,8188,1646350605,242804464,,0.0,0.0,0.0,0.0,0.0,0.0,0.0,0.0,0.0,0.0,0.0,0.0,0.0,-0.00441163033246994,0.011834941804409027,0.010061867535114288,0.0,0.0,0.0,0.0,0.0,0.0,0.0,0.0,0.0,0.1884615421295166,0.1328205168247223,10.126666069030762,0.0,0.0,0.0,0.0,0.0,0.0,0.0,0.0,0.0
1646350605.2453933,8189,1646350605,245013693,,0.0,0.0,0.0,0.0,0.0,0.0,0.0,0.0,0.0,0.0,0.0,0.0,0.0,0.0009146920638158917,0.017161265015602112,0.018583983182907104,0.0,0.0,0.0,0.0,0.0,0.0,0.0,0.0,0.0,0.6246154308319092,-0.1794871836900711,8.947436332702637,0.0,0.0,0.0,0.0,0.0,0.0,0.0,0.0,0.0
1646350605.2491732,8190,1646350605,247273820,,0.0,0.0,0.0,0.0,0.0,0.0,0.0,0.0,0.0,0.0,0.0,0.0,0.0,-0.00015057262498885393,0.007573884446173906,-0.005917098838835955,0.0,0.0,0.0,0.0,0.0,0.0,0.0,0.0,0.0,0.46128207445144653,-0.14538460969924927,9.616922378540039,0.0,0.0,0.0,0.0,0.0,0.0,0.0,0.0,0.0
1646350605.2500083,8191,1646350605,249509056,,0.0,0.0,0.0,0.0,0.0,0.0,0.0,0.0,0.0,0.0,0.0,0.0,0.0,-0.00441163033246994,0.00011703448399202898,0.017518719658255577,0.0,0.0,0.0,0.0,0.0,0.0,0.0,0.0,0.0,0.13102564215660095,0.21000000834465027,9.75333309173584,0.0,0.0,0.0,0.0,0.0,0.0,0.0,0.0,0.0
1646350605.2521665,8192,1646350605,251758877,,0.0,0.0,0.0,0.0,0.0,0.0,0.0,0.0,0.0,0.0,0.0,0.0,0.0,0.007306278217583895,0.003312827320769429,0.0026050168089568615,0.0,0.0,0.0,0.0,0.0,0.0,0.0,0.0,0.0,0.04307692497968674,0.22256410121917725,10.277436256408691,0.0,0.0,0.0,0.0,0.0,0.0,0.0,0.0,0.0
1646350605.2543733,8193,1646350605,253969657,,0.0,0.0,0.0,0.0,0.0,0.0,0.0,0.0,0.0,0.0,0.0,0.0,0.0,-0.007607422769069672,-0.0020134944934397936,0.010061867535114288,0.0,0.0,0.0,0.0,0.0,0.0,0.0,0.0,0.0,-0.1794871836900711,-0.07179487496614456,10.015384674072266,0.0,0.0,0.0,0.0,0.0,0.0,0.0,0.0,0.0
1646350605.2565758,8194,1646350605,256180555,,0.0,0.0,0.0,0.0,0.0,0.0,0.0,0.0,0.0,0.0,0.0,0.0,0.0,-0.01186848059296608,0.00544335599988699,-0.020830798894166946,0.0,0.0,0.0,0.0,0.0,0.0,0.0,0.0,0.0,0.05025641247630119,0.29076921939849854,10.578974723815918,0.0,0.0,0.0,0.0,0.0,0.0,0.0,0.0,0.0
1646350605.2588131,8195,1646350605,258411419,,0.0,0.0,0.0,0.0,0.0,0.0,0.0,0.0,0.0,0.0,0.0,0.0,0.0,0.008371543139219284,0.006508619990199804,0.0015397525858134031,0.0,0.0,0.0,0.0,0.0,0.0,0.0,0.0,0.0,0.0735897421836853,-0.3410256505012512,9.064102172851562,0.0,0.0,0.0,0.0,0.0,0.0,0.0,0.0,0.0
1646350605.2612038,8196,1646350605,260698566,,0.0,0.0,0.0,0.0,0.0,0.0,0.0,0.0,0.0,0.0,0.0,0.0,0.0,0.0030452206265181303,-0.029710371047258377,0.0058008101768791676,0.0,0.0,0.0,0.0,0.0,0.0,0.0,0.0,0.0,0.2117948830127716,0.025128206238150597,9.39435863494873,0.0,0.0,0.0,0.0,0.0,0.0,0.0,0.0,0.0
1646350605.2632444,8197,1646350605,262978929,,0.0,0.0,0.0,0.0,0.0,0.0,0.0,0.0,0.0,0.0,0.0,0.0,0.0,-0.023586388677358627,0.001182297826744616,-0.004851834382861853,0.0,0.0,0.0,0.0,0.0,0.0,0.0,0.0,0.0,0.4307692348957062,-0.05923077091574669,9.597179412841797,0.0,0.0,0.0,0.0,0.0,0.0,0.0,0.0,0.0
1646350605.2657003,8198,1646350605,265289744,,0.0,0.0,0.0,0.0,0.0,0.0,0.0,0.0,0.0,0.0,0.0,0.0,0.0,0.008371543139219284,-0.013731402345001698,-0.006982361897826195,0.0,0.0,0.0,0.0,0.0,0.0,0.0,0.0,0.0,-0.3625641167163849,-0.12205128371715546,9.701282501220703,0.0,0.0,0.0,0.0,0.0,0.0,0.0,0.0,0.0
1646350605.2678895,8199,1646350605,267553109,,0.0,0.0,0.0,0.0,0.0,0.0,0.0,0.0,0.0,0.0,0.0,0.0,0.0,0.0009146920638158917,0.00224756239913404,-0.02296132780611515,0.0,0.0,0.0,0.0,0.0,0.0,0.0,0.0,0.0,0.0412820540368557,0.2620512843132019,10.29897403717041,0.0,0.0,0.0,0.0,0.0,0.0,0.0,0.0,0.0
1646350605.2701452,8200,1646350605,269820035,,0.0,0.0,0.0,0.0,0.0,0.0,0.0,0.0,0.0,0.0,0.0,0.0,0.0,0.006241013761609793,-0.01799245923757553,0.000474488188046962,0.0,0.0,0.0,0.0,0.0,0.0,0.0,0.0,0.0,-0.08435897529125214,-0.20461538434028625,9.489486694335938,0.0,0.0,0.0,0.0,0.0,0.0,0.0,0.0,0.0
1646350605.2725081,8201,1646350605,272042253,,0.0,0.0,0.0,0.0,0.0,0.0,0.0,0.0,0.0,0.0,0.0,0.0,0.0,-0.005476894788444042,0.006508619990199804,-0.008047626353800297,0.0,0.0,0.0,0.0,0.0,0.0,0.0,0.0,0.0,0.5151281952857971,0.10230769217014313,9.460768699645996,0.0,0.0,0.0,0.0,0.0,0.0,0.0,0.0,0.0
1646350605.2747123,8202,1646350605,274248413,,0.0,0.0,0.0,0.0,0.0,0.0,0.0,0.0,0.0,0.0,0.0,0.0,0.0,0.013697865419089794,0.010769677348434925,0.0015397525858134031,0.0,0.0,0.0,0.0,0.0,0.0,0.0,0.0,0.0,0.7017949223518372,-0.31948718428611755,9.135897636413574,0.0,0.0,0.0,0.0,0.0,0.0,0.0,0.0,0.0
1646350605.276727,8203,1646350605,276457977,,0.0,0.0,0.0,0.0,0.0,0.0,0.0,0.0,0.0,0.0,0.0,0.0,0.0,-0.003346365410834551,-0.003078758716583252,0.0015397525858134031,0.0,0.0,0.0,0.0,0.0,0.0,0.0,0.0,0.0,0.4038461744785309,0.2387179583311081,9.749743461608887,0.0,0.0,0.0,0.0,0.0,0.0,0.0,0.0,0.0
1646350605.2789664,8204,1646350605,278697484,,0.0,0.0,0.0,0.0,0.0,0.0,0.0,0.0,0.0,0.0,0.0,0.0,0.0,0.0009146920638158917,0.001182297826744616,-0.0027213047724217176,0.0,0.0,0.0,0.0,0.0,0.0,0.0,0.0,0.0,0.3033333420753479,0.1561538577079773,9.760512351989746,0.0,0.0,0.0,0.0,0.0,0.0,0.0,0.0,0.0
1646350605.2813723,8205,1646350605,280982128,,0.0,0.0,0.0,0.0,0.0,0.0,0.0,0.0,0.0,0.0,0.0,0.0,0.0,-0.009737951681017876,0.011834941804409027,0.000474488188046962,0.0,0.0,0.0,0.0,0.0,0.0,0.0,0.0,0.0,-0.36974361538887024,-0.19025641679763794,9.64384651184082,0.0,0.0,0.0,0.0,0.0,0.0,0.0,0.0,0.0
1646350605.2835617,8206,1646350605,283223599,,0.0,0.0,0.0,0.0,0.0,0.0,0.0,0.0,0.0,0.0,0.0,0.0,0.0,0.005175749771296978,-0.010535608977079391,-0.013373949564993382,0.0,0.0,0.0,0.0,0.0,0.0,0.0,0.0,0.0,-0.15256410837173462,0.3823077082633972,10.507179260253906,0.0,0.0,0.0,0.0,0.0,0.0,0.0,0.0,0.0
1646350605.2857137,8207,1646350605,285436063,,0.0,0.0,0.0,0.0,0.0,0.0,0.0,0.0,0.0,0.0,0.0,0.0,0.0,0.004110485315322876,0.020357057452201843,-0.0101781552657485,0.0,0.0,0.0,0.0,0.0,0.0,0.0,0.0,0.0,0.09153846651315689,-0.1328205168247223,9.68871784210205,0.0,0.0,0.0,0.0,0.0,0.0,0.0,0.0,0.0
1646350605.2881317,8208,1646350605,287682655,,0.0,0.0,0.0,0.0,0.0,0.0,0.0,0.0,0.0,0.0,0.0,0.0,0.0,0.004110485315322876,0.001182297826744616,0.012192396447062492,0.0,0.0,0.0,0.0,0.0,0.0,0.0,0.0,0.0,0.1238461583852768,0.3912820518016815,9.922051429748535,0.0,0.0,0.0,0.0,0.0,0.0,0.0,0.0,0.0
1646350605.291173,8209,1646350605,289890021,,0.0,0.0,0.0,0.0,0.0,0.0,0.0,0.0,0.0,0.0,0.0,0.0,0.0,0.0009146920638158917,0.010769677348434925,-0.012308684177696705,0.0,0.0,0.0,0.0,0.0,0.0,0.0,0.0,0.0,0.5366666913032532,-0.1471794843673706,9.441025733947754,0.0,0.0,0.0,0.0,0.0,0.0,0.0,0.0,0.0
1646350605.2925682,8210,1646350605,292209303,,0.0,0.0,0.0,0.0,0.0,0.0,0.0,0.0,0.0,0.0,0.0,0.0,0.0,-0.01506427489221096,0.010769677348434925,0.015388189814984798,0.0,0.0,0.0,0.0,0.0,0.0,0.0,0.0,0.0,0.6389743685722351,0.1058974415063858,9.437435150146484,0.0,0.0,0.0,0.0,0.0,0.0,0.0,0.0,0.0
1646350605.2948182,8211,1646350605,294438008,,0.0,0.0,0.0,0.0,0.0,0.0,0.0,0.0,0.0,0.0,0.0,0.0,0.0,0.023285245522856712,0.00011703448399202898,-0.0005907765007577837,0.0,0.0,0.0,0.0,0.0,0.0,0.0,0.0,0.0,-0.001794871874153614,0.31948718428611755,10.399486541748047,0.0,0.0,0.0,0.0,0.0,0.0,0.0,0.0,0.0
1646350605.2971509,8212,1646350605,296709598,,0.0,0.0,0.0,0.0,0.0,0.0,0.0,0.0,0.0,0.0,0.0,0.0,0.0,-0.012933745980262756,-0.012666137889027596,0.01112713199108839,0.0,0.0,0.0,0.0,0.0,0.0,0.0,0.0,0.0,0.026923077180981636,-0.31948718428611755,9.225641250610352,0.0,0.0,0.0,0.0,0.0,0.0,0.0,0.0,0.0
1646350605.2994332,8213,1646350605,298993165,,0.0,0.0,0.0,0.0,0.0,0.0,0.0,0.0,0.0,0.0,0.0,0.0,0.0,0.001979956403374672,0.008639149367809296,-0.03041817992925644,0.0,0.0,0.0,0.0,0.0,0.0,0.0,0.0,0.0,-0.10948718339204788,0.2889743745326996,10.431795120239258,0.0,0.0,0.0,0.0,0.0,0.0,0.0,0.0,0.0
1646350605.3015106,8214,1646350605,301192445,,0.0,0.0,0.0,0.0,0.0,0.0,0.0,0.0,0.0,0.0,0.0,0.0,0.0,-0.00441163033246994,-0.0009482299210503697,0.021779777482151985,0.0,0.0,0.0,0.0,0.0,0.0,0.0,0.0,0.0,0.3589743673801422,-0.3715384900569916,9.03897476196289,0.0,0.0,0.0,0.0,0.0,0.0,0.0,0.0,0.0
1646350605.303752,8215,1646350605,303438488,,0.0,0.0,0.0,0.0,0.0,0.0,0.0,0.0,0.0,0.0,0.0,0.0,0.0,-0.00015057262498885393,0.00011703448399202898,-0.015504478476941586,0.0,0.0,0.0,0.0,0.0,0.0,0.0,0.0,0.0,0.4792307913303375,0.08974359184503555,9.801794052124023,0.0,0.0,0.0,0.0,0.0,0.0,0.0,0.0,0.0
1646350605.3059845,8216,1646350605,305777273,,0.0,0.0,0.0,0.0,0.0,0.0,0.0,0.0,0.0,0.0,0.0,0.0,0.0,-0.00441163033246994,-0.0020134944934397936,0.010061867535114288,0.0,0.0,0.0,0.0,0.0,0.0,0.0,0.0,0.0,0.5151281952857971,0.010769231244921684,9.536153793334961,0.0,0.0,0.0,0.0,0.0,0.0,0.0,0.0,0.0
1646350605.3083646,8217,1646350605,308006388,,0.0,0.0,0.0,0.0,0.0,0.0,0.0,0.0,0.0,0.0,0.0,0.0,0.0,0.0030452206265181303,0.023552851751446724,0.010061867535114288,0.0,0.0,0.0,0.0,0.0,0.0,0.0,0.0,0.0,0.17769230902194977,-0.1471794843673706,9.588204383850098,0.0,0.0,0.0,0.0,0.0,0.0,0.0,0.0,0.0
1646350605.3107572,8218,1646350605,310254822,,0.0,0.0,0.0,0.0,0.0,0.0,0.0,0.0,0.0,0.0,0.0,0.0,0.0,-0.008672687225043774,0.008639149367809296,0.0058008101768791676,0.0,0.0,0.0,0.0,0.0,0.0,0.0,0.0,0.0,-0.13641025125980377,0.20820513367652893,10.426410675048828,0.0,0.0,0.0,0.0,0.0,0.0,0.0,0.0,0.0
1646350605.3128128,8219,1646350605,312451726,,0.0,0.0,0.0,0.0,0.0,0.0,0.0,0.0,0.0,0.0,0.0,0.0,0.0,-0.00654215831309557,0.006508619990199804,0.0026050168089568615,0.0,0.0,0.0,0.0,0.0,0.0,0.0,0.0,0.0,-0.012564103119075298,0.1705128252506256,9.922051429748535,0.0,0.0,0.0,0.0,0.0,0.0,0.0,0.0,0.0
1646350605.3151586,8220,1646350605,314690675,,0.0,0.0,0.0,0.0,0.0,0.0,0.0,0.0,0.0,0.0,0.0,0.0,0.0,-0.007607422769069672,0.007573884446173906,0.030301889404654503,0.0,0.0,0.0,0.0,0.0,0.0,0.0,0.0,0.0,-0.00897435937076807,0.3643589913845062,10.555641174316406,0.0,0.0,0.0,0.0,0.0,0.0,0.0,0.0,0.0
1646350605.317379,8221,1646350605,316985473,,0.0,0.0,0.0,0.0,0.0,0.0,0.0,0.0,0.0,0.0,0.0,0.0,0.0,0.022219980135560036,-0.023318784311413765,-0.006982361897826195,0.0,0.0,0.0,0.0,0.0,0.0,0.0,0.0,0.0,0.24589744210243225,-0.2674359083175659,9.677948951721191,0.0,0.0,0.0,0.0,0.0,0.0,0.0,0.0,0.0
1646350605.3195884,8222,1646350605,319203009,,0.0,0.0,0.0,0.0,0.0,0.0,0.0,0.0,0.0,0.0,0.0,0.0,0.0,-0.002281100954860449,0.01822652854025364,-0.009112890809774399,0.0,0.0,0.0,0.0,0.0,0.0,0.0,0.0,0.0,0.6120513081550598,0.05743589997291565,9.45897388458252,0.0,0.0,0.0,0.0,0.0,0.0,0.0,0.0,0.0
1646350605.3216712,8223,1646350605,321402653,,0.0,0.0,0.0,0.0,0.0,0.0,0.0,0.0,0.0,0.0,0.0,0.0,0.0,0.0009146920638158917,-0.02544931322336197,-0.004851834382861853,0.0,0.0,0.0,0.0,0.0,0.0,0.0,0.0,0.0,0.28179487586021423,-0.2979487180709839,9.265128135681152,0.0,0.0,0.0,0.0,0.0,0.0,0.0,0.0,0.0
1646350605.3246622,8224,1646350605,323687019,,0.0,0.0,0.0,0.0,0.0,0.0,0.0,0.0,0.0,0.0,0.0,0.0,0.0,0.005175749771296978,0.00544335599988699,0.012192396447062492,0.0,0.0,0.0,0.0,0.0,0.0,0.0,0.0,0.0,0.46128207445144653,-0.17589744925498962,9.204102516174316,0.0,0.0,0.0,0.0,0.0,0.0,0.0,0.0,0.0
1646350605.3263235,8225,1646350605,325981611,,0.0,0.0,0.0,0.0,0.0,0.0,0.0,0.0,0.0,0.0,0.0,0.0,0.0,-0.005476894788444042,-0.029710371047258377,0.010061867535114288,0.0,0.0,0.0,0.0,0.0,0.0,0.0,0.0,0.0,0.010769231244921684,0.07538461685180664,9.997435569763184,0.0,0.0,0.0,0.0,0.0,0.0,0.0,0.0,0.0
1646350605.3286152,8226,1646350605,328226765,,0.0,0.0,0.0,0.0,0.0,0.0,0.0,0.0,0.0,0.0,0.0,0.0,0.0,0.006241013761609793,0.007573884446173906,0.018583983182907104,0.0,0.0,0.0,0.0,0.0,0.0,0.0,0.0,0.0,-0.003589743748307228,0.23153845965862274,10.239744186401367,0.0,0.0,0.0,0.0,0.0,0.0,0.0,0.0,0.0
1646350605.330985,8227,1646350605,330522795,,0.0,0.0,0.0,0.0,0.0,0.0,0.0,0.0,0.0,0.0,0.0,0.0,0.0,0.001979956403374672,0.00224756239913404,-0.006982361897826195,0.0,0.0,0.0,0.0,0.0,0.0,0.0,0.0,0.0,0.4415384829044342,0.01974359154701233,9.539743423461914,0.0,0.0,0.0,0.0,0.0,0.0,0.0,0.0,0.0
1646350605.3345163,8228,1646350605,332770065,,0.0,0.0,0.0,0.0,0.0,0.0,0.0,0.0,0.0,0.0,0.0,0.0,0.0,0.006241013761609793,-0.027579842135310173,-0.017635004594922066,0.0,0.0,0.0,0.0,0.0,0.0,0.0,0.0,0.0,-0.0412820540368557,-0.17589744925498962,10.09794807434082,0.0,0.0,0.0,0.0,0.0,0.0,0.0,0.0,0.0
1646350605.335335,8229,1646350605,334990166,,0.0,0.0,0.0,0.0,0.0,0.0,0.0,0.0,0.0,0.0,0.0,0.0,0.0,-0.008672687225043774,0.010769677348434925,0.0058008101768791676,0.0,0.0,0.0,0.0,0.0,0.0,0.0,0.0,0.0,0.32307693362236023,0.18666666746139526,9.423076629638672,0.0,0.0,0.0,0.0,0.0,0.0,0.0,0.0,0.0
1646350605.3375192,8230,1646350605,337208704,,0.0,0.0,0.0,0.0,0.0,0.0,0.0,0.0,0.0,0.0,0.0,0.0,0.0,-0.00015057262498885393,-0.005209287628531456,-0.0005907765007577837,0.0,0.0,0.0,0.0,0.0,0.0,0.0,0.0,0.0,0.1382051259279251,0.12743589282035828,10.225384712219238,0.0,0.0,0.0,0.0,0.0,0.0,0.0,0.0,0.0
1646350605.3398592,8231,1646350605,339470445,,0.0,0.0,0.0,0.0,0.0,0.0,0.0,0.0,0.0,0.0,0.0,0.0,0.0,0.001979956403374672,0.001182297826744616,-0.0016560404328629375,0.0,0.0,0.0,0.0,0.0,0.0,0.0,0.0,0.0,-0.012564103119075298,0.39846155047416687,10.038718223571777,0.0,0.0,0.0,0.0,0.0,0.0,0.0,0.0,0.0
1646350605.3420963,8232,1646350605,341682862,,0.0,0.0,0.0,0.0,0.0,0.0,0.0,0.0,0.0,0.0,0.0,0.0,0.0,0.012632600963115692,0.009704413823783398,-0.012308684177696705,0.0,0.0,0.0,0.0,0.0,0.0,0.0,0.0,0.0,0.24230769276618958,-0.16333334147930145,9.760512351989746,0.0,0.0,0.0,0.0,0.0,0.0,0.0,0.0,0.0
1646350605.3443391,8233,1646350605,343895159,,0.0,0.0,0.0,0.0,0.0,0.0,0.0,0.0,0.0,0.0,0.0,0.0,0.0,0.019024187698960304,-0.003078758716583252,-0.0037865692283958197,0.0,0.0,0.0,0.0,0.0,0.0,0.0,0.0,0.0,-0.14897435903549194,-0.16333334147930145,9.59000015258789,0.0,0.0,0.0,0.0,0.0,0.0,0.0,0.0,0.0
1646350605.346505,8234,1646350605,346101960,,0.0,0.0,0.0,0.0,0.0,0.0,0.0,0.0,0.0,0.0,0.0,0.0,0.0,-0.007607422769069672,-0.011600873433053493,-0.006982361897826195,0.0,0.0,0.0,0.0,0.0,0.0,0.0,0.0,0.0,0.3625641167163849,-0.10948718339204788,9.613333702087402,0.0,0.0,0.0,0.0,0.0,0.0,0.0,0.0,0.0
1646350605.3487048,8235,1646350605,348373377,,0.0,0.0,0.0,0.0,0.0,0.0,0.0,0.0,0.0,0.0,0.0,0.0,0.0,-0.0012158364988863468,-0.004144023172557354,0.010061867535114288,0.0,0.0,0.0,0.0,0.0,0.0,0.0,0.0,0.0,0.30153846740722656,-0.28179487586021423,9.035384178161621,0.0,0.0,0.0,0.0,0.0,0.0,0.0,0.0,0.0
1646350605.3510103,8236,1646350605,350626120,,0.0,0.0,0.0,0.0,0.0,0.0,0.0,0.0,0.0,0.0,0.0,0.0,0.0,0.009436807595193386,-0.013731402345001698,-0.0027213047724217176,0.0,0.0,0.0,0.0,0.0,0.0,0.0,0.0,0.0,0.5025641322135925,0.026923077180981636,9.076666831970215,0.0,0.0,0.0,0.0,0.0,0.0,0.0,0.0,0.0
1646350605.3532412,8237,1646350605,352870764,,0.0,0.0,0.0,0.0,0.0,0.0,0.0,0.0,0.0,0.0,0.0,0.0,0.0,-0.01506427489221096,-0.0147966668009758,0.000474488188046962,0.0,0.0,0.0,0.0,0.0,0.0,0.0,0.0,0.0,0.4451282024383545,-0.16692309081554413,9.731794357299805,0.0,0.0,0.0,0.0,0.0,0.0,0.0,0.0,0.0
1646350605.3555841,8238,1646350605,355140397,,0.0,0.0,0.0,0.0,0.0,0.0,0.0,0.0,0.0,0.0,0.0,0.0,0.0,0.008371543139219284,-0.003078758716583252,-0.0101781552657485,0.0,0.0,0.0,0.0,0.0,0.0,0.0,0.0,0.0,0.07897436618804932,0.2979487180709839,10.024358749389648,0.0,0.0,0.0,0.0,0.0,0.0,0.0,0.0,0.0
1646350605.357849,8239,1646350605,357379619,,0.0,0.0,0.0,0.0,0.0,0.0,0.0,0.0,0.0,0.0,0.0,0.0,0.0,0.007306278217583895,0.00544335599988699,-0.02296132780611515,0.0,0.0,0.0,0.0,0.0,0.0,0.0,0.0,0.0,0.10230769217014313,-0.19205129146575928,10.212820053100586,0.0,0.0,0.0,0.0,0.0,0.0,0.0,0.0,0.0
1646350605.3599555,8240,1646350605,359682760,,0.0,0.0,0.0,0.0,0.0,0.0,0.0,0.0,0.0,0.0,0.0,0.0,0.0,-0.012933745980262756,-0.005209287628531456,0.00686607463285327,0.0,0.0,0.0,0.0,0.0,0.0,0.0,0.0,0.0,-0.3805128335952759,-0.016153845936059952,9.974102020263672,0.0,0.0,0.0,0.0,0.0,0.0,0.0,0.0,0.0
1646350605.3622396,8241,1646350605,361899065,,0.0,0.0,0.0,0.0,0.0,0.0,0.0,0.0,0.0,0.0,0.0,0.0,0.0,-0.01186848059296608,-0.005209287628531456,-0.0027213047724217176,0.0,0.0,0.0,0.0,0.0,0.0,0.0,0.0,0.0,0.18666666746139526,0.2476923167705536,10.130256652832031,0.0,0.0,0.0,0.0,0.0,0.0,0.0,0.0,0.0
1646350605.3645182,8242,1646350605,364139999,,0.0,0.0,0.0,0.0,0.0,0.0,0.0,0.0,0.0,0.0,0.0,0.0,0.0,-0.01506427489221096,0.007573884446173906,0.0026050168089568615,0.0,0.0,0.0,0.0,0.0,0.0,0.0,0.0,0.0,0.12205128371715546,-0.16871795058250427,9.756922721862793,0.0,0.0,0.0,0.0,0.0,0.0,0.0,0.0,0.0
1646350605.3667562,8243,1646350605,366340800,,0.0,0.0,0.0,0.0,0.0,0.0,0.0,0.0,0.0,0.0,0.0,0.0,0.0,0.010502072051167488,-0.012666137889027596,-0.024026591330766678,0.0,0.0,0.0,0.0,0.0,0.0,0.0,0.0,0.0,-0.032307691872119904,0.38410258293151855,10.437179565429688,0.0,0.0,0.0,0.0,0.0,0.0,0.0,0.0,0.0
1646350605.3689647,8244,1646350605,368638716,,0.0,0.0,0.0,0.0,0.0,0.0,0.0,0.0,0.0,0.0,0.0,0.0,0.0,0.005175749771296978,0.012900206260383129,-0.017635004594922066,0.0,0.0,0.0,0.0,0.0,0.0,0.0,0.0,0.0,0.7017949223518372,-0.23333333432674408,9.29564094543457,0.0,0.0,0.0,0.0,0.0,0.0,0.0,0.0,0.0
1646350605.3711612,8245,1646350605,370866598,,0.0,0.0,0.0,0.0,0.0,0.0,0.0,0.0,0.0,0.0,0.0,0.0,0.0,0.005175749771296978,-0.0147966668009758,0.03243241831660271,0.0,0.0,0.0,0.0,0.0,0.0,0.0,0.0,0.0,-0.03410256281495094,0.12205128371715546,9.834102630615234,0.0,0.0,0.0,0.0,0.0,0.0,0.0,0.0,0.0
1646350605.3735182,8246,1646350605,373127623,,0.0,0.0,0.0,0.0,0.0,0.0,0.0,0.0,0.0,0.0,0.0,0.0,0.0,0.006241013761609793,-0.004144023172557354,-0.015504478476941586,0.0,0.0,0.0,0.0,0.0,0.0,0.0,0.0,0.0,0.20461538434028625,-0.030512820929288864,9.975897789001465,0.0,0.0,0.0,0.0,0.0,0.0,0.0,0.0,0.0
1646350605.3768122,8247,1646350605,375357543,,0.0,0.0,0.0,0.0,0.0,0.0,0.0,0.0,0.0,0.0,0.0,0.0,0.0,-0.01506427489221096,-0.011600873433053493,0.015388189814984798,0.0,0.0,0.0,0.0,0.0,0.0,0.0,0.0,0.0,0.4505128264427185,-0.07717949151992798,8.84333324432373,0.0,0.0,0.0,0.0,0.0,0.0,0.0,0.0,0.0
1646350605.3778522,8248,1646350605,377566497,,0.0,0.0,0.0,0.0,0.0,0.0,0.0,0.0,0.0,0.0,0.0,0.0,0.0,-0.00441163033246994,-0.003078758716583252,0.0047355457209050655,0.0,0.0,0.0,0.0,0.0,0.0,0.0,0.0,0.0,0.4971795082092285,0.05025641247630119,9.690512657165527,0.0,0.0,0.0,0.0,0.0,0.0,0.0,0.0,0.0
1646350605.3800497,8249,1646350605,379774437,,0.0,0.0,0.0,0.0,0.0,0.0,0.0,0.0,0.0,0.0,0.0,0.0,0.0,-0.01932533085346222,0.016095999628305435,0.007931338623166084,0.0,0.0,0.0,0.0,0.0,0.0,0.0,0.0,0.0,0.6515384912490845,-0.3302564322948456,9.125127792358398,0.0,0.0,0.0,0.0,0.0,0.0,0.0,0.0,0.0
1646350605.382331,8250,1646350605,382020286,,0.0,0.0,0.0,0.0,0.0,0.0,0.0,0.0,0.0,0.0,0.0,0.0,0.0,0.02115471661090851,0.010769677348434925,-0.008047626353800297,0.0,0.0,0.0,0.0,0.0,0.0,0.0,0.0,0.0,0.18666666746139526,0.24589744210243225,10.155384063720703,0.0,0.0,0.0,0.0,0.0,0.0,0.0,0.0,0.0
1646350605.3846352,8251,1646350605,384261197,,0.0,0.0,0.0,0.0,0.0,0.0,0.0,0.0,0.0,0.0,0.0,0.0,0.0,-0.00654215831309557,-0.013731402345001698,0.0058008101768791676,0.0,0.0,0.0,0.0,0.0,0.0,0.0,0.0,0.0,-0.09153846651315689,-0.044871795922517776,10.011795043945312,0.0,0.0,0.0,0.0,0.0,0.0,0.0,0.0,0.0
1646350605.3868535,8252,1646350605,386520681,,0.0,0.0,0.0,0.0,0.0,0.0,0.0,0.0,0.0,0.0,0.0,0.0,0.0,-0.00015057262498885393,-0.0020134944934397936,-0.0101781552657485,0.0,0.0,0.0,0.0,0.0,0.0,0.0,0.0,0.0,-0.05025641247630119,0.3212820589542389,10.492820739746094,0.0,0.0,0.0,0.0,0.0,0.0,0.0,0.0,0.0
1646350605.3892016,8253,1646350605,388744727,,0.0,0.0,0.0,0.0,0.0,0.0,0.0,0.0,0.0,0.0,0.0,0.0,0.0,-0.003346365410834551,0.017161265015602112,-0.0027213047724217176,0.0,0.0,0.0,0.0,0.0,0.0,0.0,0.0,0.0,0.4917948842048645,-0.17589744925498962,9.49128246307373,0.0,0.0,0.0,0.0,0.0,0.0,0.0,0.0,0.0
1646350605.391494,8254,1646350605,390972438,,0.0,0.0,0.0,0.0,0.0,0.0,0.0,0.0,0.0,0.0,0.0,0.0,0.0,-0.008672687225043774,-0.0020134944934397936,0.012192396447062492,0.0,0.0,0.0,0.0,0.0,0.0,0.0,0.0,0.0,0.2656410336494446,-0.003589743748307228,9.59538459777832,0.0,0.0,0.0,0.0,0.0,0.0,0.0,0.0,0.0
1646350605.3943121,8255,1646350605,393273081,,0.0,0.0,0.0,0.0,0.0,0.0,0.0,0.0,0.0,0.0,0.0,0.0,0.0,0.004110485315322876,-0.019057724624872208,-0.013373949564993382,0.0,0.0,0.0,0.0,0.0,0.0,0.0,0.0,0.0,0.0735897421836853,0.17230769991874695,10.39589786529541,0.0,0.0,0.0,0.0,0.0,0.0,0.0,0.0,0.0
1646350605.3958614,8256,1646350605,395510712,,0.0,0.0,0.0,0.0,0.0,0.0,0.0,0.0,0.0,0.0,0.0,0.0,0.0,-0.016129538416862488,-0.010535608977079391,-0.012308684177696705,0.0,0.0,0.0,0.0,0.0,0.0,0.0,0.0,0.0,-0.3266666829586029,-0.05923077091574669,9.674358367919922,0.0,0.0,0.0,0.0,0.0,0.0,0.0,0.0,0.0
1646350605.3981616,8257,1646350605,397726229,,0.0,0.0,0.0,0.0,0.0,0.0,0.0,0.0,0.0,0.0,0.0,0.0,0.0,-0.0012158364988863468,0.010769677348434925,0.013257660903036594,0.0,0.0,0.0,0.0,0.0,0.0,0.0,0.0,0.0,0.5115384459495544,0.10051282495260239,9.64384651184082,0.0,0.0,0.0,0.0,0.0,0.0,0.0,0.0,0.0
1646350605.400296,8258,1646350605,399954544,,0.0,0.0,0.0,0.0,0.0,0.0,0.0,0.0,0.0,0.0,0.0,0.0,0.0,0.008371543139219284,-0.006274553015828133,0.030301889404654503,0.0,0.0,0.0,0.0,0.0,0.0,0.0,0.0,0.0,0.10410256683826447,0.05564102530479431,9.993846893310547,0.0,0.0,0.0,0.0,0.0,0.0,0.0,0.0,0.0
1646350605.4024727,8259,1646350605,402164371,,0.0,0.0,0.0,0.0,0.0,0.0,0.0,0.0,0.0,0.0,0.0,0.0,0.0,-0.0012158364988863468,-0.012666137889027596,0.013257660903036594,0.0,0.0,0.0,0.0,0.0,0.0,0.0,0.0,0.0,0.44692307710647583,0.12743589282035828,9.380000114440918,0.0,0.0,0.0,0.0,0.0,0.0,0.0,0.0,0.0
1646350605.404916,8260,1646350605,404446450,,0.0,0.0,0.0,0.0,0.0,0.0,0.0,0.0,0.0,0.0,0.0,0.0,0.0,-0.02252112329006195,0.006508619990199804,-0.026157120242714882,0.0,0.0,0.0,0.0,0.0,0.0,0.0,0.0,0.0,0.6192308068275452,-0.27282050251960754,9.20230770111084,0.0,0.0,0.0,0.0,0.0,0.0,0.0,0.0,0.0
1646350605.406996,8261,1646350605,406706721,,0.0,0.0,0.0,0.0,0.0,0.0,0.0,0.0,0.0,0.0,0.0,0.0,0.0,-0.007607422769069672,-0.01799245923757553,0.012192396447062492,0.0,0.0,0.0,0.0,0.0,0.0,0.0,0.0,0.0,0.19923077523708344,-0.34282052516937256,8.823589324951172,0.0,0.0,0.0,0.0,0.0,0.0,0.0,0.0,0.0
1646350605.409242,8262,1646350605,408887994,,0.0,0.0,0.0,0.0,0.0,0.0,0.0,0.0,0.0,0.0,0.0,0.0,0.0,0.0030452206265181303,-0.009470346383750439,-0.0016560404328629375,0.0,0.0,0.0,0.0,0.0,0.0,0.0,0.0,0.0,0.39307692646980286,0.04307692497968674,9.914872169494629,0.0,0.0,0.0,0.0,0.0,0.0,0.0,0.0,0.0
1646350605.4114764,8263,1646350605,411085236,,0.0,0.0,0.0,0.0,0.0,0.0,0.0,0.0,0.0,0.0,0.0,0.0,0.0,-0.013999010436236858,-0.016927195712924004,0.026040835306048393,0.0,0.0,0.0,0.0,0.0,0.0,0.0,0.0,0.0,-0.19025641679763794,-0.2064102590084076,9.577435493469238,0.0,0.0,0.0,0.0,0.0,0.0,0.0,0.0,0.0
1646350605.4136617,8264,1646350605,413301921,,0.0,0.0,0.0,0.0,0.0,0.0,0.0,0.0,0.0,0.0,0.0,0.0,0.0,0.02008945122361183,-0.015861930325627327,-0.004851834382861853,0.0,0.0,0.0,0.0,0.0,0.0,0.0,0.0,0.0,-0.16153846681118011,0.3123077154159546,10.516154289245605,0.0,0.0,0.0,0.0,0.0,0.0,0.0,0.0,0.0
1646350605.4157634,8265,1646350605,415496625,,0.0,0.0,0.0,0.0,0.0,0.0,0.0,0.0,0.0,0.0,0.0,0.0,0.0,0.005175749771296978,0.007573884446173906,0.000474488188046962,0.0,0.0,0.0,0.0,0.0,0.0,0.0,0.0,0.0,-0.05384615436196327,-0.2297435998916626,9.582819938659668,0.0,0.0,0.0,0.0,0.0,0.0,0.0,0.0,0.0
1646350605.419022,8266,1646350605,417732346,,0.0,0.0,0.0,0.0,0.0,0.0,0.0,0.0,0.0,0.0,0.0,0.0,0.0,0.004110485315322876,0.001182297826744616,-0.020830798894166946,0.0,0.0,0.0,0.0,0.0,0.0,0.0,0.0,0.0,0.17589744925498962,0.33384618163108826,9.674358367919922,0.0,0.0,0.0,0.0,0.0,0.0,0.0,0.0,0.0
1646350605.4203134,8267,1646350605,419965970,,0.0,0.0,0.0,0.0,0.0,0.0,0.0,0.0,0.0,0.0,0.0,0.0,0.0,-0.0012158364988863468,-0.007339817471802235,0.000474488188046962,0.0,0.0,0.0,0.0,0.0,0.0,0.0,0.0,0.0,0.5169230699539185,-0.2153846174478531,9.514616012573242,0.0,0.0,0.0,0.0,0.0,0.0,0.0,0.0,0.0
1646350605.4224167,8268,1646350605,422144048,,0.0,0.0,0.0,0.0,0.0,0.0,0.0,0.0,0.0,0.0,0.0,0.0,0.0,0.012632600963115692,0.00544335599988699,0.01112713199108839,0.0,0.0,0.0,0.0,0.0,0.0,0.0,0.0,0.0,-0.1651282161474228,0.09871795028448105,10.087179183959961,0.0,0.0,0.0,0.0,0.0,0.0,0.0,0.0,0.0
1646350605.4247777,8269,1646350605,424464060,,0.0,0.0,0.0,0.0,0.0,0.0,0.0,0.0,0.0,0.0,0.0,0.0,0.0,-0.00015057262498885393,-0.019057724624872208,-0.012308684177696705,0.0,0.0,0.0,0.0,0.0,0.0,0.0,0.0,0.0,0.4953846335411072,-0.00897435937076807,9.475128173828125,0.0,0.0,0.0,0.0,0.0,0.0,0.0,0.0,0.0
1646350605.4269955,8270,1646350605,426694180,,0.0,0.0,0.0,0.0,0.0,0.0,0.0,0.0,0.0,0.0,0.0,0.0,0.0,-0.016129538416862488,0.00544335599988699,-0.014439214020967484,0.0,0.0,0.0,0.0,0.0,0.0,0.0,0.0,0.0,0.42538464069366455,-0.044871795922517776,9.419486999511719,0.0,0.0,0.0,0.0,0.0,0.0,0.0,0.0,0.0
1646350605.429275,8271,1646350605,428916096,,0.0,0.0,0.0,0.0,0.0,0.0,0.0,0.0,0.0,0.0,0.0,0.0,0.0,0.007306278217583895,-0.011600873433053493,0.00686607463285327,0.0,0.0,0.0,0.0,0.0,0.0,0.0,0.0,0.0,0.3769230842590332,0.07538461685180664,9.60615348815918,0.0,0.0,0.0,0.0,0.0,0.0,0.0,0.0,0.0
1646350605.4313405,8272,1646350605,431143033,,0.0,0.0,0.0,0.0,0.0,0.0,0.0,0.0,0.0,0.0,0.0,0.0,0.0,-0.002281100954860449,0.00224756239913404,-0.020830798894166946,0.0,0.0,0.0,0.0,0.0,0.0,0.0,0.0,0.0,0.08435897529125214,0.11307692527770996,10.182308197021484,0.0,0.0,0.0,0.0,0.0,0.0,0.0,0.0,0.0
1646350605.433702,8273,1646350605,433359980,,0.0,0.0,0.0,0.0,0.0,0.0,0.0,0.0,0.0,0.0,0.0,0.0,0.0,-0.010803216136991978,0.00224756239913404,0.012192396447062492,0.0,0.0,0.0,0.0,0.0,0.0,0.0,0.0,0.0,0.41641026735305786,-0.27820512652397156,9.069487571716309,0.0,0.0,0.0,0.0,0.0,0.0,0.0,0.0,0.0
1646350605.435914,8274,1646350605,435593091,,0.0,0.0,0.0,0.0,0.0,0.0,0.0,0.0,0.0,0.0,0.0,0.0,0.0,0.0009146920638158917,0.004378091543912888,-0.014439214020967484,0.0,0.0,0.0,0.0,0.0,0.0,0.0,0.0,0.0,-0.05384615436196327,0.1974359005689621,10.421026229858398,0.0,0.0,0.0,0.0,0.0,0.0,0.0,0.0,0.0
1646350605.438208,8275,1646350605,437853059,,0.0,0.0,0.0,0.0,0.0,0.0,0.0,0.0,0.0,0.0,0.0,0.0,0.0,-0.007607422769069672,-0.005209287628531456,0.0036702812649309635,0.0,0.0,0.0,0.0,0.0,0.0,0.0,0.0,0.0,0.09692308306694031,-0.19025641679763794,9.358461380004883,0.0,0.0,0.0,0.0,0.0,0.0,0.0,0.0,0.0
1646350605.4406285,8276,1646350605,440115136,,0.0,0.0,0.0,0.0,0.0,0.0,0.0,0.0,0.0,0.0,0.0,0.0,0.0,-0.0012158364988863468,-0.0020134944934397936,0.0026050168089568615,0.0,0.0,0.0,0.0,0.0,0.0,0.0,0.0,0.0,-0.026923077180981636,0.3410256505012512,10.225384712219238,0.0,0.0,0.0,0.0,0.0,0.0,0.0,0.0,0.0
1646350605.4426928,8277,1646350605,442333899,,0.0,0.0,0.0,0.0,0.0,0.0,0.0,0.0,0.0,0.0,0.0,0.0,0.0,-0.003346365410834551,0.00544335599988699,0.0058008101768791676,0.0,0.0,0.0,0.0,0.0,0.0,0.0,0.0,0.0,0.18487180769443512,-0.02153846248984337,9.993846893310547,0.0,0.0,0.0,0.0,0.0,0.0,0.0,0.0,0.0
1646350605.4449897,8278,1646350605,444572986,,0.0,0.0,0.0,0.0,0.0,0.0,0.0,0.0,0.0,0.0,0.0,0.0,0.0,-0.018260065466165543,-0.016927195712924004,-0.0037865692283958197,0.0,0.0,0.0,0.0,0.0,0.0,0.0,0.0,0.0,-0.3823077082633972,-0.08794872462749481,9.740769386291504,0.0,0.0,0.0,0.0,0.0,0.0,0.0,0.0,0.0
1646350605.4471743,8279,1646350605,446802194,,0.0,0.0,0.0,0.0,0.0,0.0,0.0,0.0,0.0,0.0,0.0,0.0,0.0,0.015828393399715424,0.003312827320769429,0.00686607463285327,0.0,0.0,0.0,0.0,0.0,0.0,0.0,0.0,0.0,0.18666666746139526,0.12923076748847961,10.094359397888184,0.0,0.0,0.0,0.0,0.0,0.0,0.0,0.0,0.0
1646350605.4494643,8280,1646350605,449068431,,0.0,0.0,0.0,0.0,0.0,0.0,0.0,0.0,0.0,0.0,0.0,0.0,0.0,-0.008672687225043774,0.015030735172331333,0.029236625880002975,0.0,0.0,0.0,0.0,0.0,0.0,0.0,0.0,0.0,0.3446153998374939,-0.3500000238418579,8.997692108154297,0.0,0.0,0.0,0.0,0.0,0.0,0.0,0.0,0.0
1646350605.451776,8281,1646350605,451271009,,0.0,0.0,0.0,0.0,0.0,0.0,0.0,0.0,0.0,0.0,0.0,0.0,0.0,0.001979956403374672,0.017161265015602112,-0.018700269982218742,0.0,0.0,0.0,0.0,0.0,0.0,0.0,0.0,0.0,0.43435898423194885,0.044871795922517776,9.65999984741211,0.0,0.0,0.0,0.0,0.0,0.0,0.0,0.0,0.0
1646350605.453889,8282,1646350605,453547010,,0.0,0.0,0.0,0.0,0.0,0.0,0.0,0.0,0.0,0.0,0.0,0.0,0.0,0.010502072051167488,-0.009470346383750439,0.008996603079140186,0.0,0.0,0.0,0.0,0.0,0.0,0.0,0.0,0.0,-0.026923077180981636,-0.12743589282035828,9.715641021728516,0.0,0.0,0.0,0.0,0.0,0.0,0.0,0.0,0.0
1646350605.4561224,8283,1646350605,455808192,,0.0,0.0,0.0,0.0,0.0,0.0,0.0,0.0,0.0,0.0,0.0,0.0,0.0,-0.017194801941514015,0.003312827320769429,-0.0037865692283958197,0.0,0.0,0.0,0.0,0.0,0.0,0.0,0.0,0.0,0.1741025745868683,0.26025640964508057,9.970513343811035,0.0,0.0,0.0,0.0,0.0,0.0,0.0,0.0,0.0
1646350605.4584343,8284,1646350605,458078947,,0.0,0.0,0.0,0.0,0.0,0.0,0.0,0.0,0.0,0.0,0.0,0.0,0.0,0.008371543139219284,0.001182297826744616,-0.0005907765007577837,0.0,0.0,0.0,0.0,0.0,0.0,0.0,0.0,0.0,-0.02153846248984337,0.03769230842590332,10.069230079650879,0.0,0.0,0.0,0.0,0.0,0.0,0.0,0.0,0.0
1646350605.46177,8285,1646350605,460339910,,0.0,0.0,0.0,0.0,0.0,0.0,0.0,0.0,0.0,0.0,0.0,0.0,0.0,0.0030452206265181303,0.004378091543912888,0.0047355457209050655,0.0,0.0,0.0,0.0,0.0,0.0,0.0,0.0,0.0,0.19025641679763794,0.2674359083175659,10.23794937133789,0.0,0.0,0.0,0.0,0.0,0.0,0.0,0.0,0.0
1646350605.4628537,8286,1646350605,462583999,,0.0,0.0,0.0,0.0,0.0,0.0,0.0,0.0,0.0,0.0,0.0,0.0,0.0,-0.00654215831309557,0.00544335599988699,-0.013373949564993382,0.0,0.0,0.0,0.0,0.0,0.0,0.0,0.0,0.0,0.05025641247630119,0.1238461583852768,10.250513076782227,0.0,0.0,0.0,0.0,0.0,0.0,0.0,0.0,0.0
1646350605.4651575,8287,1646350605,464806795,,0.0,0.0,0.0,0.0,0.0,0.0,0.0,0.0,0.0,0.0,0.0,0.0,0.0,0.001979956403374672,0.001182297826744616,0.000474488188046962,0.0,0.0,0.0,0.0,0.0,0.0,0.0,0.0,0.0,0.15974359214305878,-0.3643589913845062,9.067692756652832,0.0,0.0,0.0,0.0,0.0,0.0,0.0,0.0,0.0
1646350605.4673996,8288,1646350605,467044537,,0.0,0.0,0.0,0.0,0.0,0.0,0.0,0.0,0.0,0.0,0.0,0.0,0.0,-0.00015057262498885393,-0.010535608977079391,-0.013373949564993382,0.0,0.0,0.0,0.0,0.0,0.0,0.0,0.0,0.0,0.4235897660255432,-0.03410256281495094,9.74256420135498,0.0,0.0,0.0,0.0,0.0,0.0,0.0,0.0,0.0
1646350605.4696102,8289,1646350605,469233492,,0.0,0.0,0.0,0.0,0.0,0.0,0.0,0.0,0.0,0.0,0.0,0.0,0.0,0.010502072051167488,-0.004144023172557354,0.015388189814984798,0.0,0.0,0.0,0.0,0.0,0.0,0.0,0.0,0.0,-0.16871795058250427,-0.0825641080737114,9.68871784210205,0.0,0.0,0.0,0.0,0.0,0.0,0.0,0.0,0.0
1646350605.47192,8290,1646350605,471496666,,0.0,0.0,0.0,0.0,0.0,0.0,0.0,0.0,0.0,0.0,0.0,0.0,0.0,0.0030452206265181303,0.004378091543912888,-0.024026591330766678,0.0,0.0,0.0,0.0,0.0,0.0,0.0,0.0,0.0,0.2925640940666199,0.13102564215660095,9.89871883392334,0.0,0.0,0.0,0.0,0.0,0.0,0.0,0.0,0.0
1646350605.4741683,8291,1646350605,473736120,,0.0,0.0,0.0,0.0,0.0,0.0,0.0,0.0,0.0,0.0,0.0,0.0,0.0,-0.00441163033246994,-0.006274553015828133,-0.0101781552657485,0.0,0.0,0.0,0.0,0.0,0.0,0.0,0.0,0.0,0.39307692646980286,0.03948718309402466,9.810769081115723,0.0,0.0,0.0,0.0,0.0,0.0,0.0,0.0,0.0
1646350605.4764283,8292,1646350605,475973944,,0.0,0.0,0.0,0.0,0.0,0.0,0.0,0.0,0.0,0.0,0.0,0.0,0.0,0.008371543139219284,-0.0009482299210503697,0.000474488188046962,0.0,0.0,0.0,0.0,0.0,0.0,0.0,0.0,0.0,0.5294871926307678,-0.08794872462749481,9.189743995666504,0.0,0.0,0.0,0.0,0.0,0.0,0.0,0.0,0.0
1646350605.4785924,8293,1646350605,478217570,,0.0,0.0,0.0,0.0,0.0,0.0,0.0,0.0,0.0,0.0,0.0,0.0,0.0,-0.01506427489221096,0.012900206260383129,0.01964924857020378,0.0,0.0,0.0,0.0,0.0,0.0,0.0,0.0,0.0,0.4038461744785309,-0.1238461583852768,9.692307472229004,0.0,0.0,0.0,0.0,0.0,0.0,0.0,0.0,0.0
1646350605.480813,8294,1646350605,480416358,,0.0,0.0,0.0,0.0,0.0,0.0,0.0,0.0,0.0,0.0,0.0,0.0,0.0,0.02115471661090851,0.003312827320769429,-0.0005907765007577837,0.0,0.0,0.0,0.0,0.0,0.0,0.0,0.0,0.0,0.06282051652669907,0.22615385055541992,9.830512046813965,0.0,0.0,0.0,0.0,0.0,0.0,0.0,0.0,0.0
1646350605.4830945,8295,1646350605,482618258,,0.0,0.0,0.0,0.0,0.0,0.0,0.0,0.0,0.0,0.0,0.0,0.0,0.0,-0.010803216136991978,0.006508619990199804,0.008996603079140186,0.0,0.0,0.0,0.0,0.0,0.0,0.0,0.0,0.0,-0.03410256281495094,0.2441025674343109,10.43897533416748,0.0,0.0,0.0,0.0,0.0,0.0,0.0,0.0,0.0
1646350605.4852314,8296,1646350605,484849560,,0.0,0.0,0.0,0.0,0.0,0.0,0.0,0.0,0.0,0.0,0.0,0.0,0.0,0.009436807595193386,0.010769677348434925,0.024975569918751717,0.0,0.0,0.0,0.0,0.0,0.0,0.0,0.0,0.0,-0.21717949211597443,-0.07538461685180664,9.85025691986084,0.0,0.0,0.0,0.0,0.0,0.0,0.0,0.0,0.0
1646350605.487413,8297,1646350605,487095320,,0.0,0.0,0.0,0.0,0.0,0.0,0.0,0.0,0.0,0.0,0.0,0.0,0.0,-0.00654215831309557,0.007573884446173906,0.0026050168089568615,0.0,0.0,0.0,0.0,0.0,0.0,0.0,0.0,0.0,0.18307693302631378,0.24589744210243225,10.020769119262695,0.0,0.0,0.0,0.0,0.0,0.0,0.0,0.0,0.0
1646350605.489662,8298,1646350605,489303815,,0.0,0.0,0.0,0.0,0.0,0.0,0.0,0.0,0.0,0.0,0.0,0.0,0.0,0.005175749771296978,-0.016927195712924004,-0.011243419721722603,0.0,0.0,0.0,0.0,0.0,0.0,0.0,0.0,0.0,0.1471794843673706,-0.30512821674346924,9.067692756652832,0.0,0.0,0.0,0.0,0.0,0.0,0.0,0.0,0.0
1646350605.4920194,8299,1646350605,491573936,,0.0,0.0,0.0,0.0,0.0,0.0,0.0,0.0,0.0,0.0,0.0,0.0,0.0,-0.013999010436236858,0.008639149367809296,0.007931338623166084,0.0,0.0,0.0,0.0,0.0,0.0,0.0,0.0,0.0,0.5151281952857971,-0.00897435937076807,9.200512886047363,0.0,0.0,0.0,0.0,0.0,0.0,0.0,0.0,0.0
1646350605.4942799,8300,1646350605,493837134,,0.0,0.0,0.0,0.0,0.0,0.0,0.0,0.0,0.0,0.0,0.0,0.0,0.0,-0.008672687225043774,-0.005209287628531456,-0.005917098838835955,0.0,0.0,0.0,0.0,0.0,0.0,0.0,0.0,0.0,0.5474358797073364,-0.03589743748307228,9.45718002319336,0.0,0.0,0.0,0.0,0.0,0.0,0.0,0.0,0.0
1646350605.4963787,8301,1646350605,496055189,,0.0,0.0,0.0,0.0,0.0,0.0,0.0,0.0,0.0,0.0,0.0,0.0,0.0,0.026481037959456444,-0.015861930325627327,-0.005917098838835955,0.0,0.0,0.0,0.0,0.0,0.0,0.0,0.0,0.0,0.16871795058250427,0.13641025125980377,9.730000495910645,0.0,0.0,0.0,0.0,0.0,0.0,0.0,0.0,0.0
1646350605.4986203,8302,1646350605,498254915,,0.0,0.0,0.0,0.0,0.0,0.0,0.0,0.0,0.0,0.0,0.0,0.0,0.0,-0.008672687225043774,0.009704413823783398,0.012192396447062492,0.0,0.0,0.0,0.0,0.0,0.0,0.0,0.0,0.0,0.3392307758331299,0.15076923370361328,9.746153831481934,0.0,0.0,0.0,0.0,0.0,0.0,0.0,0.0,0.0
1646350605.5017514,8303,1646350605,500502375,,0.0,0.0,0.0,0.0,0.0,0.0,0.0,0.0,0.0,0.0,0.0,0.0,0.0,-0.008672687225043774,0.017161265015602112,0.008996603079140186,0.0,0.0,0.0,0.0,0.0,0.0,0.0,0.0,0.0,0.3500000238418579,-0.3176923394203186,9.024615287780762,0.0,0.0,0.0,0.0,0.0,0.0,0.0,0.0,0.0
1646350605.504348,8304,1646350605,502737203,,0.0,0.0,0.0,0.0,0.0,0.0,0.0,0.0,0.0,0.0,0.0,0.0,0.0,-0.013999010436236858,-0.0147966668009758,-0.009112890809774399,0.0,0.0,0.0,0.0,0.0,0.0,0.0,0.0,0.0,0.6228205561637878,0.18487180769443512,9.304615020751953,0.0,0.0,0.0,0.0,0.0,0.0,0.0,0.0,0.0
1646350605.5052602,8305,1646350605,504929765,,0.0,0.0,0.0,0.0,0.0,0.0,0.0,0.0,0.0,0.0,0.0,0.0,0.0,0.01156733650714159,-0.0009482299210503697,-0.0037865692283958197,0.0,0.0,0.0,0.0,0.0,0.0,0.0,0.0,0.0,0.5492307543754578,-0.17769230902194977,9.45358943939209,0.0,0.0,0.0,0.0,0.0,0.0,0.0,0.0,0.0
1646350605.5075016,8306,1646350605,507147441,,0.0,0.0,0.0,0.0,0.0,0.0,0.0,0.0,0.0,0.0,0.0,0.0,0.0,0.01156733650714159,-0.004144023172557354,-0.005917098838835955,0.0,0.0,0.0,0.0,0.0,0.0,0.0,0.0,0.0,0.026923077180981636,0.40205129981040955,10.245128631591797,0.0,0.0,0.0,0.0,0.0,0.0,0.0,0.0,0.0
1646350605.5096765,8307,1646350605,509344997,,0.0,0.0,0.0,0.0,0.0,0.0,0.0,0.0,0.0,0.0,0.0,0.0,0.0,-0.031043240800499916,0.017161265015602112,-0.006982361897826195,0.0,0.0,0.0,0.0,0.0,0.0,0.0,0.0,0.0,0.06102564185857773,-0.11128205060958862,10.05307674407959,0.0,0.0,0.0,0.0,0.0,0.0,0.0,0.0,0.0
1646350605.5120103,8308,1646350605,511604860,,0.0,0.0,0.0,0.0,0.0,0.0,0.0,0.0,0.0,0.0,0.0,0.0,0.0,0.017958922311663628,-0.020122988149523735,0.0015397525858134031,0.0,0.0,0.0,0.0,0.0,0.0,0.0,0.0,0.0,-0.2530769407749176,-0.14000000059604645,9.979487419128418,0.0,0.0,0.0,0.0,0.0,0.0,0.0,0.0,0.0
1646350605.514197,8309,1646350605,513843925,,0.0,0.0,0.0,0.0,0.0,0.0,0.0,0.0,0.0,0.0,0.0,0.0,0.0,-0.008672687225043774,0.00011703448399202898,-0.009112890809774399,0.0,0.0,0.0,0.0,0.0,0.0,0.0,0.0,0.0,-0.001794871874153614,0.04307692497968674,10.029743194580078,0.0,0.0,0.0,0.0,0.0,0.0,0.0,0.0,0.0
1646350605.5163505,8310,1646350605,516024106,,0.0,0.0,0.0,0.0,0.0,0.0,0.0,0.0,0.0,0.0,0.0,0.0,0.0,-0.0012158364988863468,-0.004144023172557354,0.036693476140499115,0.0,0.0,0.0,0.0,0.0,0.0,0.0,0.0,0.0,0.2997435927391052,-0.3356410562992096,9.225641250610352,0.0,0.0,0.0,0.0,0.0,0.0,0.0,0.0,0.0
1646350605.5187595,8311,1646350605,518252456,,0.0,0.0,0.0,0.0,0.0,0.0,0.0,0.0,0.0,0.0,0.0,0.0,0.0,-0.00654215831309557,0.011834941804409027,0.0036702812649309635,0.0,0.0,0.0,0.0,0.0,0.0,0.0,0.0,0.0,0.34641027450561523,0.01974359154701233,9.539743423461914,0.0,0.0,0.0,0.0,0.0,0.0,0.0,0.0,0.0
1646350605.520882,8312,1646350605,520460851,,0.0,0.0,0.0,0.0,0.0,0.0,0.0,0.0,0.0,0.0,0.0,0.0,0.0,0.005175749771296978,0.00544335599988699,0.013257660903036594,0.0,0.0,0.0,0.0,0.0,0.0,0.0,0.0,0.0,-0.044871795922517776,-0.11128205060958862,9.64025592803955,0.0,0.0,0.0,0.0,0.0,0.0,0.0,0.0,0.0
1646350605.5231428,8313,1646350605,522740902,,0.0,0.0,0.0,0.0,0.0,0.0,0.0,0.0,0.0,0.0,0.0,0.0,0.0,-0.009737951681017876,-0.0020134944934397936,0.021779777482151985,0.0,0.0,0.0,0.0,0.0,0.0,0.0,0.0,0.0,0.26923078298568726,0.1794871836900711,9.667179107666016,0.0,0.0,0.0,0.0,0.0,0.0,0.0,0.0,0.0
1646350605.525259,8314,1646350605,524925843,,0.0,0.0,0.0,0.0,0.0,0.0,0.0,0.0,0.0,0.0,0.0,0.0,0.0,-0.00654215831309557,0.010769677348434925,-0.0027213047724217176,0.0,0.0,0.0,0.0,0.0,0.0,0.0,0.0,0.0,0.05564102530479431,-0.044871795922517776,10.202051162719727,0.0,0.0,0.0,0.0,0.0,0.0,0.0,0.0,0.0
1646350605.5275257,8315,1646350605,527166731,,0.0,0.0,0.0,0.0,0.0,0.0,0.0,0.0,0.0,0.0,0.0,0.0,0.0,0.0030452206265181303,-0.009470346383750439,0.0026050168089568615,0.0,0.0,0.0,0.0,0.0,0.0,0.0,0.0,0.0,0.5420513153076172,-0.03589743748307228,9.074872016906738,0.0,0.0,0.0,0.0,0.0,0.0,0.0,0.0,0.0
1646350605.5297008,8316,1646350605,529366249,,0.0,0.0,0.0,0.0,0.0,0.0,0.0,0.0,0.0,0.0,0.0,0.0,0.0,-0.005476894788444042,0.006508619990199804,0.0036702812649309635,0.0,0.0,0.0,0.0,0.0,0.0,0.0,0.0,0.0,0.25128206610679626,-0.044871795922517776,9.726409912109375,0.0,0.0,0.0,0.0,0.0,0.0,0.0,0.0,0.0
1646350605.5320425,8317,1646350605,531637404,,0.0,0.0,0.0,0.0,0.0,0.0,0.0,0.0,0.0,0.0,0.0,0.0,0.0,-0.00015057262498885393,0.00011703448399202898,0.0036702812649309635,0.0,0.0,0.0,0.0,0.0,0.0,0.0,0.0,0.0,0.26384615898132324,-0.08974359184503555,9.44820499420166,0.0,0.0,0.0,0.0,0.0,0.0,0.0,0.0,0.0
1646350605.5343814,8318,1646350605,533853390,,0.0,0.0,0.0,0.0,0.0,0.0,0.0,0.0,0.0,0.0,0.0,0.0,0.0,-0.002281100954860449,-0.005209287628531456,-0.011243419721722603,0.0,0.0,0.0,0.0,0.0,0.0,0.0,0.0,0.0,0.026923077180981636,0.2530769407749176,10.333076477050781,0.0,0.0,0.0,0.0,0.0,0.0,0.0,0.0,0.0
1646350605.5365121,8319,1646350605,536098481,,0.0,0.0,0.0,0.0,0.0,0.0,0.0,0.0,0.0,0.0,0.0,0.0,0.0,0.0009146920638158917,-0.0020134944934397936,0.030301889404654503,0.0,0.0,0.0,0.0,0.0,0.0,0.0,0.0,0.0,-0.1884615421295166,-0.08974359184503555,9.791025161743164,0.0,0.0,0.0,0.0,0.0,0.0,0.0,0.0,0.0
1646350605.5386934,8320,1646350605,538313614,,0.0,0.0,0.0,0.0,0.0,0.0,0.0,0.0,0.0,0.0,0.0,0.0,0.0,-0.009737951681017876,0.011834941804409027,-0.012308684177696705,0.0,0.0,0.0,0.0,0.0,0.0,0.0,0.0,0.0,0.14000000059604645,0.028717949986457825,9.961538314819336,0.0,0.0,0.0,0.0,0.0,0.0,0.0,0.0,0.0
1646350605.5408266,8321,1646350605,540553630,,0.0,0.0,0.0,0.0,0.0,0.0,0.0,0.0,0.0,0.0,0.0,0.0,0.0,0.012632600963115692,0.007573884446173906,-0.011243419721722603,0.0,0.0,0.0,0.0,0.0,0.0,0.0,0.0,0.0,0.05743589997291565,0.04307692497968674,9.95974349975586,0.0,0.0,0.0,0.0,0.0,0.0,0.0,0.0,0.0
1646350605.54322,8322,1646350605,542844615,,0.0,0.0,0.0,0.0,0.0,0.0,0.0,0.0,0.0,0.0,0.0,0.0,0.0,-0.007607422769069672,-0.003078758716583252,-0.009112890809774399,0.0,0.0,0.0,0.0,0.0,0.0,0.0,0.0,0.0,0.5779487490653992,-0.14000000059604645,9.184359550476074,0.0,0.0,0.0,0.0,0.0,0.0,0.0,0.0,0.0
1646350605.547036,8323,1646350605,545077913,,0.0,0.0,0.0,0.0,0.0,0.0,0.0,0.0,0.0,0.0,0.0,0.0,0.0,0.007306278217583895,-0.007339817471802235,-0.0016560404328629375,0.0,0.0,0.0,0.0,0.0,0.0,0.0,0.0,0.0,0.47025641798973083,-0.0825641080737114,9.50205135345459,0.0,0.0,0.0,0.0,0.0,0.0,0.0,0.0,0.0
1646350605.5476644,8324,1646350605,547353723,,0.0,0.0,0.0,0.0,0.0,0.0,0.0,0.0,0.0,0.0,0.0,0.0,0.0,0.001979956403374672,0.011834941804409027,0.017518719658255577,0.0,0.0,0.0,0.0,0.0,0.0,0.0,0.0,0.0,0.21358974277973175,0.19923077523708344,9.706666946411133,0.0,0.0,0.0,0.0,0.0,0.0,0.0,0.0,0.0
1646350605.5499165,8325,1646350605,549558363,,0.0,0.0,0.0,0.0,0.0,0.0,0.0,0.0,0.0,0.0,0.0,0.0,0.0,-0.020390594378113747,0.013965470716357231,0.0026050168089568615,0.0,0.0,0.0,0.0,0.0,0.0,0.0,0.0,0.0,0.08076923340559006,0.2117948830127716,10.017179489135742,0.0,0.0,0.0,0.0,0.0,0.0,0.0,0.0,0.0
1646350605.552076,8326,1646350605,551756272,,0.0,0.0,0.0,0.0,0.0,0.0,0.0,0.0,0.0,0.0,0.0,0.0,0.0,-0.010803216136991978,-0.005209287628531456,0.007931338623166084,0.0,0.0,0.0,0.0,0.0,0.0,0.0,0.0,0.0,-0.21000000834465027,-0.09871795028448105,9.925641059875488,0.0,0.0,0.0,0.0,0.0,0.0,0.0,0.0,0.0
1646350605.5542846,8327,1646350605,553994050,,0.0,0.0,0.0,0.0,0.0,0.0,0.0,0.0,0.0,0.0,0.0,0.0,0.0,-0.005476894788444042,-0.006274553015828133,-0.026157120242714882,0.0,0.0,0.0,0.0,0.0,0.0,0.0,0.0,0.0,0.05384615436196327,0.32487180829048157,10.383333206176758,0.0,0.0,0.0,0.0,0.0,0.0,0.0,0.0,0.0
1646350605.556584,8328,1646350605,556211193,,0.0,0.0,0.0,0.0,0.0,0.0,0.0,0.0,0.0,0.0,0.0,0.0,0.0,0.009436807595193386,0.00011703448399202898,0.024975569918751717,0.0,0.0,0.0,0.0,0.0,0.0,0.0,0.0,0.0,0.36974361538887024,-0.15256410837173462,9.570256233215332,0.0,0.0,0.0,0.0,0.0,0.0,0.0,0.0,0.0
1646350605.558909,8329,1646350605,558440746,,0.0,0.0,0.0,0.0,0.0,0.0,0.0,0.0,0.0,0.0,0.0,0.0,0.0,-0.00441163033246994,0.006508619990199804,0.000474488188046962,0.0,0.0,0.0,0.0,0.0,0.0,0.0,0.0,0.0,0.0,0.2925640940666199,10.080000877380371,0.0,0.0,0.0,0.0,0.0,0.0,0.0,0.0,0.0
1646350605.5612218,8330,1646350605,560667253,,0.0,0.0,0.0,0.0,0.0,0.0,0.0,0.0,0.0,0.0,0.0,0.0,0.0,-0.007607422769069672,0.00011703448399202898,0.0015397525858134031,0.0,0.0,0.0,0.0,0.0,0.0,0.0,0.0,0.0,0.01794871874153614,0.27282050251960754,10.24871826171875,0.0,0.0,0.0,0.0,0.0,0.0,0.0,0.0,0.0
1646350605.563352,8331,1646350605,562909837,,0.0,0.0,0.0,0.0,0.0,0.0,0.0,0.0,0.0,0.0,0.0,0.0,0.0,-0.01186848059296608,0.020357057452201843,0.000474488188046962,0.0,0.0,0.0,0.0,0.0,0.0,0.0,0.0,0.0,-0.3392307758331299,-0.09512820839881897,9.9094877243042,0.0,0.0,0.0,0.0,0.0,0.0,0.0,0.0,0.0
1646350605.5656402,8332,1646350605,565204092,,0.0,0.0,0.0,0.0,0.0,0.0,0.0,0.0,0.0,0.0,0.0,0.0,0.0,-0.0012158364988863468,0.016095999628305435,-0.0101781552657485,0.0,0.0,0.0,0.0,0.0,0.0,0.0,0.0,0.0,0.007179487496614456,0.1471794843673706,10.065641403198242,0.0,0.0,0.0,0.0,0.0,0.0,0.0,0.0,0.0
1646350605.5678504,8333,1646350605,567479929,,0.0,0.0,0.0,0.0,0.0,0.0,0.0,0.0,0.0,0.0,0.0,0.0,0.0,-0.0012158364988863468,-0.0009482299210503697,0.008996603079140186,0.0,0.0,0.0,0.0,0.0,0.0,0.0,0.0,0.0,0.3087179660797119,-0.3482051491737366,9.05512809753418,0.0,0.0,0.0,0.0,0.0,0.0,0.0,0.0,0.0
1646350605.5701709,8334,1646350605,569729953,,0.0,0.0,0.0,0.0,0.0,0.0,0.0,0.0,0.0,0.0,0.0,0.0,0.0,0.008371543139219284,0.00011703448399202898,0.0047355457209050655,0.0,0.0,0.0,0.0,0.0,0.0,0.0,0.0,0.0,0.5420513153076172,0.00897435937076807,9.410512924194336,0.0,0.0,0.0,0.0,0.0,0.0,0.0,0.0,0.0
1646350605.5723376,8335,1646350605,571937352,,0.0,0.0,0.0,0.0,0.0,0.0,0.0,0.0,0.0,0.0,0.0,0.0,0.0,-0.00654215831309557,0.006508619990199804,0.008996603079140186,0.0,0.0,0.0,0.0,0.0,0.0,0.0,0.0,0.0,0.7574359178543091,-0.25846153497695923,9.478717803955078,0.0,0.0,0.0,0.0,0.0,0.0,0.0,0.0,0.0
1646350605.5745506,8336,1646350605,574148861,,0.0,0.0,0.0,0.0,0.0,0.0,0.0,0.0,0.0,0.0,0.0,0.0,0.0,0.001979956403374672,-0.011600873433053493,-0.0037865692283958197,0.0,0.0,0.0,0.0,0.0,0.0,0.0,0.0,0.0,0.3679487407207489,0.1794871836900711,9.764102935791016,0.0,0.0,0.0,0.0,0.0,0.0,0.0,0.0,0.0
1646350605.5766675,8337,1646350605,576325161,,0.0,0.0,0.0,0.0,0.0,0.0,0.0,0.0,0.0,0.0,0.0,0.0,0.0,-0.003346365410834551,-0.02118825353682041,-0.0037865692283958197,0.0,0.0,0.0,0.0,0.0,0.0,0.0,0.0,0.0,0.08974359184503555,0.001794871874153614,10.081794738769531,0.0,0.0,0.0,0.0,0.0,0.0,0.0,0.0,0.0
1646350605.5792804,8338,1646350605,578631736,,0.0,0.0,0.0,0.0,0.0,0.0,0.0,0.0,0.0,0.0,0.0,0.0,0.0,0.01156733650714159,0.022487586364150047,0.017518719658255577,0.0,0.0,0.0,0.0,0.0,0.0,0.0,0.0,0.0,-0.27820512652397156,-0.22435897588729858,9.834102630615234,0.0,0.0,0.0,0.0,0.0,0.0,0.0,0.0,0.0
1646350605.5814598,8339,1646350605,580936093,,0.0,0.0,0.0,0.0,0.0,0.0,0.0,0.0,0.0,0.0,0.0,0.0,0.0,-0.01186848059296608,0.008639149367809296,0.008996603079140186,0.0,0.0,0.0,0.0,0.0,0.0,0.0,0.0,0.0,-0.10948718339204788,0.2710256576538086,10.354615211486816,0.0,0.0,0.0,0.0,0.0,0.0,0.0,0.0,0.0
1646350605.583658,8340,1646350605,583172911,,0.0,0.0,0.0,0.0,0.0,0.0,0.0,0.0,0.0,0.0,0.0,0.0,0.0,0.019024187698960304,-0.007339817471802235,0.017518719658255577,0.0,0.0,0.0,0.0,0.0,0.0,0.0,0.0,0.0,0.1974359005689621,-0.2064102590084076,9.45897388458252,0.0,0.0,0.0,0.0,0.0,0.0,0.0,0.0,0.0
1646350605.5858495,8341,1646350605,585387678,,0.0,0.0,0.0,0.0,0.0,0.0,0.0,0.0,0.0,0.0,0.0,0.0,0.0,0.0009146920638158917,0.02887917309999466,-0.0101781552657485,0.0,0.0,0.0,0.0,0.0,0.0,0.0,0.0,0.0,0.08076923340559006,0.14000000059604645,10.221795082092285,0.0,0.0,0.0,0.0,0.0,0.0,0.0,0.0,0.0
1646350605.5888538,8342,1646350605,587601029,,0.0,0.0,0.0,0.0,0.0,0.0,0.0,0.0,0.0,0.0,0.0,0.0,0.0,0.012632600963115692,-0.0286451056599617,0.0026050168089568615,0.0,0.0,0.0,0.0,0.0,0.0,0.0,0.0,0.0,0.7287179827690125,-0.22794872522354126,9.376410484313965,0.0,0.0,0.0,0.0,0.0,0.0,0.0,0.0,0.0
1646350605.5909421,8343,1646350605,589948279,,0.0,0.0,0.0,0.0,0.0,0.0,0.0,0.0,0.0,0.0,0.0,0.0,0.0,-0.008672687225043774,-0.0147966668009758,-0.009112890809774399,0.0,0.0,0.0,0.0,0.0,0.0,0.0,0.0,0.0,-0.005384615622460842,0.12923076748847961,9.880769729614258,0.0,0.0,0.0,0.0,0.0,0.0,0.0,0.0,0.0
1646350605.5925634,8344,1646350605,592169819,,0.0,0.0,0.0,0.0,0.0,0.0,0.0,0.0,0.0,0.0,0.0,0.0,0.0,-0.00441163033246994,0.016095999628305435,-0.011243419721722603,0.0,0.0,0.0,0.0,0.0,0.0,0.0,0.0,0.0,0.09333333373069763,0.1238461583852768,10.160768508911133,0.0,0.0,0.0,0.0,0.0,0.0,0.0,0.0,0.0
1646350605.5946841,8345,1646350605,594380493,,0.0,0.0,0.0,0.0,0.0,0.0,0.0,0.0,0.0,0.0,0.0,0.0,0.0,0.015828393399715424,0.00011703448399202898,0.02071451209485531,0.0,0.0,0.0,0.0,0.0,0.0,0.0,0.0,0.0,0.41102564334869385,-0.02153846248984337,9.189743995666504,0.0,0.0,0.0,0.0,0.0,0.0,0.0,0.0,0.0
1646350605.597093,8346,1646350605,596577221,,0.0,0.0,0.0,0.0,0.0,0.0,0.0,0.0,0.0,0.0,0.0,0.0,0.0,0.0030452206265181303,0.017161265015602112,-0.009112890809774399,0.0,0.0,0.0,0.0,0.0,0.0,0.0,0.0,0.0,0.3123077154159546,0.11666666716337204,9.778461456298828,0.0,0.0,0.0,0.0,0.0,0.0,0.0,0.0,0.0
1646350605.5992792,8347,1646350605,598801211,,0.0,0.0,0.0,0.0,0.0,0.0,0.0,0.0,0.0,0.0,0.0,0.0,0.0,-0.00015057262498885393,-0.012666137889027596,-0.0027213047724217176,0.0,0.0,0.0,0.0,0.0,0.0,0.0,0.0,0.0,0.5402564406394958,-0.4092307686805725,9.101795196533203,0.0,0.0,0.0,0.0,0.0,0.0,0.0,0.0,0.0
1646350605.601462,8348,1646350605,601052897,,0.0,0.0,0.0,0.0,0.0,0.0,0.0,0.0,0.0,0.0,0.0,0.0,0.0,-0.00015057262498885393,-0.007339817471802235,-0.0037865692283958197,0.0,0.0,0.0,0.0,0.0,0.0,0.0,0.0,0.0,0.17230769991874695,0.12564103305339813,10.065641403198242,0.0,0.0,0.0,0.0,0.0,0.0,0.0,0.0,0.0
1646350605.6037307,8349,1646350605,603269263,,0.0,0.0,0.0,0.0,0.0,0.0,0.0,0.0,0.0,0.0,0.0,0.0,0.0,0.006241013761609793,-0.008405081927776337,-0.0037865692283958197,0.0,0.0,0.0,0.0,0.0,0.0,0.0,0.0,0.0,-0.1741025745868683,-0.025128206238150597,9.771282196044922,0.0,0.0,0.0,0.0,0.0,0.0,0.0,0.0,0.0
1646350605.6058362,8350,1646350605,605477617,,0.0,0.0,0.0,0.0,0.0,0.0,0.0,0.0,0.0,0.0,0.0,0.0,0.0,-0.008672687225043774,0.00544335599988699,-0.0027213047724217176,0.0,0.0,0.0,0.0,0.0,0.0,0.0,0.0,0.0,0.10230769217014313,0.10051282495260239,9.68871784210205,0.0,0.0,0.0,0.0,0.0,0.0,0.0,0.0,0.0
1646350605.608149,8351,1646350605,607689940,,0.0,0.0,0.0,0.0,0.0,0.0,0.0,0.0,0.0,0.0,0.0,0.0,0.0,0.0030452206265181303,-0.0286451056599617,-0.009112890809774399,0.0,0.0,0.0,0.0,0.0,0.0,0.0,0.0,0.0,-0.13641025125980377,0.18666666746139526,10.453333854675293,0.0,0.0,0.0,0.0,0.0,0.0,0.0,0.0,0.0
1646350605.610384,8352,1646350605,609905917,,0.0,0.0,0.0,0.0,0.0,0.0,0.0,0.0,0.0,0.0,0.0,0.0,0.0,-0.012933745980262756,0.01822652854025364,0.0026050168089568615,0.0,0.0,0.0,0.0,0.0,0.0,0.0,0.0,0.0,0.23153845965862274,0.07897436618804932,9.563076972961426,0.0,0.0,0.0,0.0,0.0,0.0,0.0,0.0,0.0
1646350605.6125133,8353,1646350605,612120069,,0.0,0.0,0.0,0.0,0.0,0.0,0.0,0.0,0.0,0.0,0.0,0.0,0.0,-0.002281100954860449,-0.01799245923757553,-0.025091856718063354,0.0,0.0,0.0,0.0,0.0,0.0,0.0,0.0,0.0,0.5851281881332397,-0.12025640904903412,9.503846168518066,0.0,0.0,0.0,0.0,0.0,0.0,0.0,0.0,0.0
1646350605.6147144,8354,1646350605,614319347,,0.0,0.0,0.0,0.0,0.0,0.0,0.0,0.0,0.0,0.0,0.0,0.0,0.0,0.001979956403374672,-0.0009482299210503697,-0.0005907765007577837,0.0,0.0,0.0,0.0,0.0,0.0,0.0,0.0,0.0,-0.3266666829586029,-0.11128205060958862,9.726409912109375,0.0,0.0,0.0,0.0,0.0,0.0,0.0,0.0,0.0
1646350605.616922,8355,1646350605,616542518,,0.0,0.0,0.0,0.0,0.0,0.0,0.0,0.0,0.0,0.0,0.0,0.0,0.0,-0.01186848059296608,0.00224756239913404,-0.026157120242714882,0.0,0.0,0.0,0.0,0.0,0.0,0.0,0.0,0.0,0.5402564406394958,0.05923077091574669,9.859230041503906,0.0,0.0,0.0,0.0,0.0,0.0,0.0,0.0,0.0
1646350605.6192243,8356,1646350605,618775833,,0.0,0.0,0.0,0.0,0.0,0.0,0.0,0.0,0.0,0.0,0.0,0.0,0.0,-0.01186848059296608,0.004378091543912888,0.017518719658255577,0.0,0.0,0.0,0.0,0.0,0.0,0.0,0.0,0.0,-0.026923077180981636,-0.18487180769443512,9.516409873962402,0.0,0.0,0.0,0.0,0.0,0.0,0.0,0.0,0.0
1646350605.6214347,8357,1646350605,620983961,,0.0,0.0,0.0,0.0,0.0,0.0,0.0,0.0,0.0,0.0,0.0,0.0,0.0,0.005175749771296978,-0.004144023172557354,-0.013373949564993382,0.0,0.0,0.0,0.0,0.0,0.0,0.0,0.0,0.0,0.5492307543754578,0.12743589282035828,9.573845863342285,0.0,0.0,0.0,0.0,0.0,0.0,0.0,0.0,0.0
1646350605.6237316,8358,1646350605,623188398,,0.0,0.0,0.0,0.0,0.0,0.0,0.0,0.0,0.0,0.0,0.0,0.0,0.0,0.004110485315322876,0.004378091543912888,0.007931338623166084,0.0,0.0,0.0,0.0,0.0,0.0,0.0,0.0,0.0,0.6551282405853271,-0.2943589687347412,9.365640640258789,0.0,0.0,0.0,0.0,0.0,0.0,0.0,0.0,0.0
1646350605.6258018,8359,1646350605,625381382,,0.0,0.0,0.0,0.0,0.0,0.0,0.0,0.0,0.0,0.0,0.0,0.0,0.0,-0.018260065466165543,0.003312827320769429,-0.009112890809774399,0.0,0.0,0.0,0.0,0.0,0.0,0.0,0.0,0.0,0.3589743673801422,0.2566666603088379,9.896923065185547,0.0,0.0,0.0,0.0,0.0,0.0,0.0,0.0,0.0
1646350605.6280773,8360,1646350605,627665602,,0.0,0.0,0.0,0.0,0.0,0.0,0.0,0.0,0.0,0.0,0.0,0.0,0.0,0.02008945122361183,-0.0020134944934397936,0.0058008101768791676,0.0,0.0,0.0,0.0,0.0,0.0,0.0,0.0,0.0,0.24051281809806824,0.15256410837173462,10.049487113952637,0.0,0.0,0.0,0.0,0.0,0.0,0.0,0.0,0.0
1646350605.6313138,8361,1646350605,629869148,,0.0,0.0,0.0,0.0,0.0,0.0,0.0,0.0,0.0,0.0,0.0,0.0,0.0,0.007306278217583895,-0.012666137889027596,-0.008047626353800297,0.0,0.0,0.0,0.0,0.0,0.0,0.0,0.0,0.0,-0.3643589913845062,-0.044871795922517776,9.679743766784668,0.0,0.0,0.0,0.0,0.0,0.0,0.0,0.0,0.0
1646350605.6328716,8362,1646350605,632099247,,0.0,0.0,0.0,0.0,0.0,0.0,0.0,0.0,0.0,0.0,0.0,0.0,0.0,-0.027847446501255035,0.025683380663394928,-0.013373949564993382,0.0,0.0,0.0,0.0,0.0,0.0,0.0,0.0,0.0,-0.07179487496614456,0.2064102590084076,10.50538444519043,0.0,0.0,0.0,0.0,0.0,0.0,0.0,0.0,0.0
1646350605.6346219,8363,1646350605,634325020,,0.0,0.0,0.0,0.0,0.0,0.0,0.0,0.0,0.0,0.0,0.0,0.0,0.0,0.012632600963115692,0.00011703448399202898,0.01112713199108839,0.0,0.0,0.0,0.0,0.0,0.0,0.0,0.0,0.0,-0.0412820540368557,-0.21000000834465027,9.362051010131836,0.0,0.0,0.0,0.0,0.0,0.0,0.0,0.0,0.0
1646350605.6370006,8364,1646350605,636577425,,0.0,0.0,0.0,0.0,0.0,0.0,0.0,0.0,0.0,0.0,0.0,0.0,0.0,0.009436807595193386,0.015030735172331333,0.012192396447062492,0.0,0.0,0.0,0.0,0.0,0.0,0.0,0.0,0.0,0.34282052516937256,0.2656410336494446,9.695897102355957,0.0,0.0,0.0,0.0,0.0,0.0,0.0,0.0,0.0
1646350605.6392882,8365,1646350605,638780460,,0.0,0.0,0.0,0.0,0.0,0.0,0.0,0.0,0.0,0.0,0.0,0.0,0.0,-0.023586388677358627,-0.006274553015828133,0.0058008101768791676,0.0,0.0,0.0,0.0,0.0,0.0,0.0,0.0,0.0,0.5869230628013611,-0.18128205835819244,9.433846473693848,0.0,0.0,0.0,0.0,0.0,0.0,0.0,0.0,0.0
1646350605.6414852,8366,1646350605,641087544,,0.0,0.0,0.0,0.0,0.0,0.0,0.0,0.0,0.0,0.0,0.0,0.0,0.0,0.008371543139219284,0.006508619990199804,-0.0037865692283958197,0.0,0.0,0.0,0.0,0.0,0.0,0.0,0.0,0.0,0.5043590068817139,0.0825641080737114,9.746153831481934,0.0,0.0,0.0,0.0,0.0,0.0,0.0,0.0,0.0
1646350605.6438296,8367,1646350605,643387613,,0.0,0.0,0.0,0.0,0.0,0.0,0.0,0.0,0.0,0.0,0.0,0.0,0.0,-0.00015057262498885393,0.010769677348434925,0.00686607463285327,0.0,0.0,0.0,0.0,0.0,0.0,0.0,0.0,0.0,0.3482051491737366,0.028717949986457825,9.873589515686035,0.0,0.0,0.0,0.0,0.0,0.0,0.0,0.0,0.0
1646350605.645935,8368,1646350605,645583424,,0.0,0.0,0.0,0.0,0.0,0.0,0.0,0.0,0.0,0.0,0.0,0.0,0.0,0.004110485315322876,-0.011600873433053493,-0.0037865692283958197,0.0,0.0,0.0,0.0,0.0,0.0,0.0,0.0,0.0,-0.17589744925498962,-0.17230769991874695,9.65461540222168,0.0,0.0,0.0,0.0,0.0,0.0,0.0,0.0,0.0
1646350605.6481872,8369,1646350605,647812132,,0.0,0.0,0.0,0.0,0.0,0.0,0.0,0.0,0.0,0.0,0.0,0.0,0.0,0.007306278217583895,-0.003078758716583252,0.0015397525858134031,0.0,0.0,0.0,0.0,0.0,0.0,0.0,0.0,0.0,-0.15076923370361328,0.26923078298568726,10.453333854675293,0.0,0.0,0.0,0.0,0.0,0.0,0.0,0.0,0.0
1646350605.6504245,8370,1646350605,650026762,,0.0,0.0,0.0,0.0,0.0,0.0,0.0,0.0,0.0,0.0,0.0,0.0,0.0,-0.012933745980262756,-0.015861930325627327,0.018583983182907104,0.0,0.0,0.0,0.0,0.0,0.0,0.0,0.0,0.0,0.2889743745326996,-0.2925640940666199,9.1646146774292,0.0,0.0,0.0,0.0,0.0,0.0,0.0,0.0,0.0
1646350605.6526408,8371,1646350605,652246996,,0.0,0.0,0.0,0.0,0.0,0.0,0.0,0.0,0.0,0.0,0.0,0.0,0.0,-0.01186848059296608,-0.009470346383750439,-0.012308684177696705,0.0,0.0,0.0,0.0,0.0,0.0,0.0,0.0,0.0,0.21358974277973175,0.23333333432674408,10.09794807434082,0.0,0.0,0.0,0.0,0.0,0.0,0.0,0.0,0.0
1646350605.6548645,8372,1646350605,654470831,,0.0,0.0,0.0,0.0,0.0,0.0,0.0,0.0,0.0,0.0,0.0,0.0,0.0,-0.00015057262498885393,0.00011703448399202898,0.012192396447062492,0.0,0.0,0.0,0.0,0.0,0.0,0.0,0.0,0.0,0.11307692527770996,0.1741025745868683,10.148205757141113,0.0,0.0,0.0,0.0,0.0,0.0,0.0,0.0,0.0
1646350605.6572075,8373,1646350605,656695871,,0.0,0.0,0.0,0.0,0.0,0.0,0.0,0.0,0.0,0.0,0.0,0.0,0.0,-0.007607422769069672,0.001182297826744616,0.000474488188046962,0.0,0.0,0.0,0.0,0.0,0.0,0.0,0.0,0.0,-0.21717949211597443,0.16333334147930145,10.04230785369873,0.0,0.0,0.0,0.0,0.0,0.0,0.0,0.0,0.0
1646350605.6594508,8374,1646350605,658999561,,0.0,0.0,0.0,0.0,0.0,0.0,0.0,0.0,0.0,0.0,0.0,0.0,0.0,-0.01186848059296608,-0.006274553015828133,0.012192396447062492,0.0,0.0,0.0,0.0,0.0,0.0,0.0,0.0,0.0,0.14538460969924927,0.10051282495260239,10.062051773071289,0.0,0.0,0.0,0.0,0.0,0.0,0.0,0.0,0.0
1646350605.6616137,8375,1646350605,661225437,,0.0,0.0,0.0,0.0,0.0,0.0,0.0,0.0,0.0,0.0,0.0,0.0,0.0,0.008371543139219284,0.010769677348434925,0.015388189814984798,0.0,0.0,0.0,0.0,0.0,0.0,0.0,0.0,0.0,0.4415384829044342,0.005384615622460842,9.318974494934082,0.0,0.0,0.0,0.0,0.0,0.0,0.0,0.0,0.0
1646350605.6638608,8376,1646350605,663468221,,0.0,0.0,0.0,0.0,0.0,0.0,0.0,0.0,0.0,0.0,0.0,0.0,0.0,0.0009146920638158917,0.006508619990199804,-0.017635004594922066,0.0,0.0,0.0,0.0,0.0,0.0,0.0,0.0,0.0,0.4307692348957062,0.13461539149284363,9.821538925170898,0.0,0.0,0.0,0.0,0.0,0.0,0.0,0.0,0.0
1646350605.6660988,8377,1646350605,665694277,,0.0,0.0,0.0,0.0,0.0,0.0,0.0,0.0,0.0,0.0,0.0,0.0,0.0,-0.003346365410834551,0.013965470716357231,0.0058008101768791676,0.0,0.0,0.0,0.0,0.0,0.0,0.0,0.0,0.0,0.45769232511520386,-0.36076924204826355,9.082051277160645,0.0,0.0,0.0,0.0,0.0,0.0,0.0,0.0,0.0
1646350605.6683433,8378,1646350605,667943707,,0.0,0.0,0.0,0.0,0.0,0.0,0.0,0.0,0.0,0.0,0.0,0.0,0.0,-0.012933745980262756,0.011834941804409027,0.0026050168089568615,0.0,0.0,0.0,0.0,0.0,0.0,0.0,0.0,0.0,0.23512820899486542,0.18128205835819244,10.002820014953613,0.0,0.0,0.0,0.0,0.0,0.0,0.0,0.0,0.0
1646350605.6705594,8379,1646350605,670146444,,0.0,0.0,0.0,0.0,0.0,0.0,0.0,0.0,0.0,0.0,0.0,0.0,0.0,-0.0012158364988863468,-0.003078758716583252,-0.015504478476941586,0.0,0.0,0.0,0.0,0.0,0.0,0.0,0.0,0.0,-0.25846153497695923,-0.1238461583852768,9.873589515686035,0.0,0.0,0.0,0.0,0.0,0.0,0.0,0.0,0.0
1646350605.6742904,8380,1646350605,672359430,,0.0,0.0,0.0,0.0,0.0,0.0,0.0,0.0,0.0,0.0,0.0,0.0,0.0,0.015828393399715424,0.003312827320769429,0.014322925359010696,0.0,0.0,0.0,0.0,0.0,0.0,0.0,0.0,0.0,-0.05923077091574669,-0.003589743748307228,9.9399995803833,0.0,0.0,0.0,0.0,0.0,0.0,0.0,0.0,0.0
1646350605.6749666,8381,1646350605,674572377,,0.0,0.0,0.0,0.0,0.0,0.0,0.0,0.0,0.0,0.0,0.0,0.0,0.0,-0.0012158364988863468,-0.012666137889027596,-0.013373949564993382,0.0,0.0,0.0,0.0,0.0,0.0,0.0,0.0,0.0,0.04307692497968674,0.3823077082633972,10.39589786529541,0.0,0.0,0.0,0.0,0.0,0.0,0.0,0.0,0.0
1646350605.6772022,8382,1646350605,676804542,,0.0,0.0,0.0,0.0,0.0,0.0,0.0,0.0,0.0,0.0,0.0,0.0,0.0,-0.002281100954860449,-0.023318784311413765,0.0047355457209050655,0.0,0.0,0.0,0.0,0.0,0.0,0.0,0.0,0.0,0.0735897421836853,-0.1651282161474228,9.984871864318848,0.0,0.0,0.0,0.0,0.0,0.0,0.0,0.0,0.0
1646350605.6794171,8383,1646350605,679032414,,0.0,0.0,0.0,0.0,0.0,0.0,0.0,0.0,0.0,0.0,0.0,0.0,0.0,-0.007607422769069672,0.009704413823783398,0.000474488188046962,0.0,0.0,0.0,0.0,0.0,0.0,0.0,0.0,0.0,0.36615386605262756,0.15794873237609863,9.934615135192871,0.0,0.0,0.0,0.0,0.0,0.0,0.0,0.0,0.0
1646350605.6816268,8384,1646350605,681264360,,0.0,0.0,0.0,0.0,0.0,0.0,0.0,0.0,0.0,0.0,0.0,0.0,0.0,0.004110485315322876,-0.006274553015828133,-0.013373949564993382,0.0,0.0,0.0,0.0,0.0,0.0,0.0,0.0,0.0,0.4882051348686218,-0.38410258293151855,9.152050971984863,0.0,0.0,0.0,0.0,0.0,0.0,0.0,0.0,0.0
1646350605.6839893,8385,1646350605,683523063,,0.0,0.0,0.0,0.0,0.0,0.0,0.0,0.0,0.0,0.0,0.0,0.0,0.0,0.014763129875063896,-0.0009482299210503697,-0.0037865692283958197,0.0,0.0,0.0,0.0,0.0,0.0,0.0,0.0,0.0,0.30153846740722656,-0.2889743745326996,9.128717422485352,0.0,0.0,0.0,0.0,0.0,0.0,0.0,0.0,0.0
1646350605.6860664,8386,1646350605,685721911,,0.0,0.0,0.0,0.0,0.0,0.0,0.0,0.0,0.0,0.0,0.0,0.0,0.0,-0.027847446501255035,0.020357057452201843,-0.0005907765007577837,0.0,0.0,0.0,0.0,0.0,0.0,0.0,0.0,0.0,0.21000000834465027,0.05923077091574669,9.792820930480957,0.0,0.0,0.0,0.0,0.0,0.0,0.0,0.0,0.0
1646350605.688406,8387,1646350605,687949712,,0.0,0.0,0.0,0.0,0.0,0.0,0.0,0.0,0.0,0.0,0.0,0.0,0.0,0.014763129875063896,0.001182297826744616,0.007931338623166084,0.0,0.0,0.0,0.0,0.0,0.0,0.0,0.0,0.0,-0.08615384995937347,0.05564102530479431,9.93820571899414,0.0,0.0,0.0,0.0,0.0,0.0,0.0,0.0,0.0
1646350605.690644,8388,1646350605,690214172,,0.0,0.0,0.0,0.0,0.0,0.0,0.0,0.0,0.0,0.0,0.0,0.0,0.0,0.007306278217583895,0.012900206260383129,-0.005917098838835955,0.0,0.0,0.0,0.0,0.0,0.0,0.0,0.0,0.0,0.5079486966133118,0.10230769217014313,9.577435493469238,0.0,0.0,0.0,0.0,0.0,0.0,0.0,0.0,0.0
1646350605.6928384,8389,1646350605,692494713,,0.0,0.0,0.0,0.0,0.0,0.0,0.0,0.0,0.0,0.0,0.0,0.0,0.0,-0.002281100954860449,-0.0020134944934397936,-0.025091856718063354,0.0,0.0,0.0,0.0,0.0,0.0,0.0,0.0,0.0,0.07897436618804932,-0.09692308306694031,10.045896530151367,0.0,0.0,0.0,0.0,0.0,0.0,0.0,0.0,0.0
1646350605.695189,8390,1646350605,694727883,,0.0,0.0,0.0,0.0,0.0,0.0,0.0,0.0,0.0,0.0,0.0,0.0,0.0,0.0009146920638158917,-0.0020134944934397936,0.0036702812649309635,0.0,0.0,0.0,0.0,0.0,0.0,0.0,0.0,0.0,0.39666667580604553,0.07000000029802322,9.3889741897583,0.0,0.0,0.0,0.0,0.0,0.0,0.0,0.0,0.0
1646350605.6972704,8391,1646350605,696956596,,0.0,0.0,0.0,0.0,0.0,0.0,0.0,0.0,0.0,0.0,0.0,0.0,0.0,0.012632600963115692,0.00011703448399202898,-0.021896062418818474,0.0,0.0,0.0,0.0,0.0,0.0,0.0,0.0,0.0,0.18487180769443512,0.11128205060958862,10.074614524841309,0.0,0.0,0.0,0.0,0.0,0.0,0.0,0.0,0.0
1646350605.69964,8392,1646350605,699207209,,0.0,0.0,0.0,0.0,0.0,0.0,0.0,0.0,0.0,0.0,0.0,0.0,0.0,-0.00654215831309557,-0.006274553015828133,0.0015397525858134031,0.0,0.0,0.0,0.0,0.0,0.0,0.0,0.0,0.0,0.003589743748307228,0.46128207445144653,10.126666069030762,0.0,0.0,0.0,0.0,0.0,0.0,0.0,0.0,0.0
1646350605.701873,8393,1646350605,701407279,,0.0,0.0,0.0,0.0,0.0,0.0,0.0,0.0,0.0,0.0,0.0,0.0,0.0,-0.00015057262498885393,-0.013731402345001698,-0.014439214020967484,0.0,0.0,0.0,0.0,0.0,0.0,0.0,0.0,0.0,0.3500000238418579,0.007179487496614456,9.85564136505127,0.0,0.0,0.0,0.0,0.0,0.0,0.0,0.0,0.0
