Time,header.seq,header.stamp.secs,header.stamp.nsecs,header.frame_id,orientation.x,orientation.y,orientation.z,orientation.w,orientation_covariance_0,orientation_covariance_1,orientation_covariance_2,orientation_covariance_3,orientation_covariance_4,orientation_covariance_5,orientation_covariance_6,orientation_covariance_7,orientation_covariance_8,angular_velocity.x,angular_velocity.y,angular_velocity.z,angular_velocity_covariance_0,angular_velocity_covariance_1,angular_velocity_covariance_2,angular_velocity_covariance_3,angular_velocity_covariance_4,angular_velocity_covariance_5,angular_velocity_covariance_6,angular_velocity_covariance_7,angular_velocity_covariance_8,linear_acceleration.x,linear_acceleration.y,linear_acceleration.z,linear_acceleration_covariance_0,linear_acceleration_covariance_1,linear_acceleration_covariance_2,linear_acceleration_covariance_3,linear_acceleration_covariance_4,linear_acceleration_covariance_5,linear_acceleration_covariance_6,linear_acceleration_covariance_7,linear_acceleration_covariance_8
1646243400.929824,7725,1646243400,929239364,,0.0,0.0,0.0,0.0,0.0,0.0,0.0,0.0,0.0,0.0,0.0,0.0,0.0,0.023103805258870125,-0.0026324838399887085,0.018949739634990692,0.0,0.0,0.0,0.0,0.0,0.0,0.0,0.0,0.0,0.22435897588729858,-0.05205128341913223,9.543333053588867,0.0,0.0,0.0,0.0,0.0,0.0,0.0,0.0,0.0
1646243400.931999,7726,1646243400,931522244,,0.0,0.0,0.0,0.0,0.0,0.0,0.0,0.0,0.0,0.0,0.0,0.0,0.0,0.02523433417081833,-0.012219863012433052,-0.011942928656935692,0.0,0.0,0.0,0.0,0.0,0.0,0.0,0.0,0.0,0.18666666746139526,0.044871795922517776,9.629487037658691,0.0,0.0,0.0,0.0,0.0,0.0,0.0,0.0,0.0
1646243400.9342256,7727,1646243400,933742129,,0.0,0.0,0.0,0.0,0.0,0.0,0.0,0.0,0.0,0.0,0.0,0.0,0.0,0.02843012474477291,-0.0047630127519369125,-0.01939977891743183,0.0,0.0,0.0,0.0,0.0,0.0,0.0,0.0,0.0,-0.07717949151992798,-0.016153845936059952,10.04230785369873,0.0,0.0,0.0,0.0,0.0,0.0,0.0,0.0,0.0
1646243400.9364223,7728,1646243400,935982103,,0.0,0.0,0.0,0.0,0.0,0.0,0.0,0.0,0.0,0.0,0.0,0.0,0.0,0.03375644609332085,-0.020741978660225868,-0.009812399744987488,0.0,0.0,0.0,0.0,0.0,0.0,0.0,0.0,0.0,-0.30512821674346924,0.26923078298568726,10.069230079650879,0.0,0.0,0.0,0.0,0.0,0.0,0.0,0.0,0.0
1646243400.9385846,7729,1646243400,938217592,,0.0,0.0,0.0,0.0,0.0,0.0,0.0,0.0,0.0,0.0,0.0,0.0,0.0,0.04334382712841034,-0.010089334100484848,-0.0034208132419735193,0.0,0.0,0.0,0.0,0.0,0.0,0.0,0.0,0.0,-0.15256410837173462,0.3535897731781006,10.354615211486816,0.0,0.0,0.0,0.0,0.0,0.0,0.0,0.0,0.0
1646243400.9409683,7730,1646243400,940533904,,0.0,0.0,0.0,0.0,0.0,0.0,0.0,0.0,0.0,0.0,0.0,0.0,0.0,0.0028637798968702555,-0.012219863012433052,-0.0023555487859994173,0.0,0.0,0.0,0.0,0.0,0.0,0.0,0.0,0.0,0.2117948830127716,-0.22256410121917725,9.493077278137207,0.0,0.0,0.0,0.0,0.0,0.0,0.0,0.0,0.0
1646243400.9432344,7731,1646243400,942812834,,0.0,0.0,0.0,0.0,0.0,0.0,0.0,0.0,0.0,0.0,0.0,0.0,0.0,0.04760488495230675,-0.0036977482959628105,-0.015138722956180573,0.0,0.0,0.0,0.0,0.0,0.0,0.0,0.0,0.0,0.28179487586021423,-0.2028205245733261,9.726409912109375,0.0,0.0,0.0,0.0,0.0,0.0,0.0,0.0,0.0
1646243400.9457016,7732,1646243400,945092050,,0.0,0.0,0.0,0.0,0.0,0.0,0.0,0.0,0.0,0.0,0.0,0.0,0.0,0.004994308575987816,-0.0005019548698328435,0.0008402442326769233,0.0,0.0,0.0,0.0,0.0,0.0,0.0,0.0,0.0,0.38948720693588257,-0.0825641080737114,9.318974494934082,0.0,0.0,0.0,0.0,0.0,0.0,0.0,0.0,0.0
1646243400.9476726,7733,1646243400,947279456,,0.0,0.0,0.0,0.0,0.0,0.0,0.0,0.0,0.0,0.0,0.0,0.0,0.0,0.01777748018503189,-0.012219863012433052,0.010427623987197876,0.0,0.0,0.0,0.0,0.0,0.0,0.0,0.0,0.0,0.08794872462749481,-0.016153845936059952,9.89512825012207,0.0,0.0,0.0,0.0,0.0,0.0,0.0,0.0,0.0
1646243400.9499066,7734,1646243400,949526483,,0.0,0.0,0.0,0.0,0.0,0.0,0.0,0.0,0.0,0.0,0.0,0.0,0.0,0.03695223852992058,-0.0047630127519369125,0.0008402442326769233,0.0,0.0,0.0,0.0,0.0,0.0,0.0,0.0,0.0,-0.22256410121917725,0.14000000059604645,10.018974304199219,0.0,0.0,0.0,0.0,0.0,0.0,0.0,0.0,0.0
1646243400.9522736,7735,1646243400,951784761,,0.0,0.0,0.0,0.0,0.0,0.0,0.0,0.0,0.0,0.0,0.0,0.0,0.0,0.0007332512177526951,0.018672803416848183,0.0008402442326769233,0.0,0.0,0.0,0.0,0.0,0.0,0.0,0.0,0.0,-0.10230769217014313,-0.14179487526416779,9.94359016418457,0.0,0.0,0.0,0.0,0.0,0.0,0.0,0.0,0.0
1646243400.9544697,7736,1646243400,954056272,,0.0,0.0,0.0,0.0,0.0,0.0,0.0,0.0,0.0,0.0,0.0,0.0,0.0,0.02523433417081833,0.00588963134214282,-0.00022502047067973763,0.0,0.0,0.0,0.0,0.0,0.0,0.0,0.0,0.0,0.3769230842590332,0.1238461583852768,9.801794052124023,0.0,0.0,0.0,0.0,0.0,0.0,0.0,0.0,0.0
1646243400.9567215,7737,1646243400,956271049,,0.0,0.0,0.0,0.0,0.0,0.0,0.0,0.0,0.0,0.0,0.0,0.0,0.0,0.00712483748793602,-0.007958807051181793,-0.0076818703673779964,0.0,0.0,0.0,0.0,0.0,0.0,0.0,0.0,0.0,0.016153845936059952,0.05025641247630119,9.843076705932617,0.0,0.0,0.0,0.0,0.0,0.0,0.0,0.0,0.0
1646243400.9590743,7738,1646243400,958588129,,0.0,0.0,0.0,0.0,0.0,0.0,0.0,0.0,0.0,0.0,0.0,0.0,0.0,0.02949538826942444,-0.0026324838399887085,-0.02366083674132824,0.0,0.0,0.0,0.0,0.0,0.0,0.0,0.0,0.0,0.00897435937076807,0.4953846335411072,9.9094877243042,0.0,0.0,0.0,0.0,0.0,0.0,0.0,0.0,0.0
1646243400.9612994,7739,1646243400,960823425,,0.0,0.0,0.0,0.0,0.0,0.0,0.0,0.0,0.0,0.0,0.0,0.0,0.0,0.015646953135728836,-0.009024071507155895,-0.027921894565224648,0.0,0.0,0.0,0.0,0.0,0.0,0.0,0.0,0.0,-0.032307691872119904,0.25128206610679626,9.516409873962402,0.0,0.0,0.0,0.0,0.0,0.0,0.0,0.0,0.0
1646243400.9635332,7740,1646243400,963035937,,0.0,0.0,0.0,0.0,0.0,0.0,0.0,0.0,0.0,0.0,0.0,0.0,0.0,0.01777748018503189,-0.009024071507155895,-0.01087766420096159,0.0,0.0,0.0,0.0,0.0,0.0,0.0,0.0,0.0,0.3948718011379242,-0.25846153497695923,9.410512924194336,0.0,0.0,0.0,0.0,0.0,0.0,0.0,0.0,0.0
1646243400.965671,7741,1646243400,965239359,,0.0,0.0,0.0,0.0,0.0,0.0,0.0,0.0,0.0,0.0,0.0,0.0,0.0,0.00925536546856165,-0.014350391924381256,-0.0076818703673779964,0.0,0.0,0.0,0.0,0.0,0.0,0.0,0.0,0.0,0.23512820899486542,0.08435897529125214,9.518204689025879,0.0,0.0,0.0,0.0,0.0,0.0,0.0,0.0,0.0
1646243400.9679546,7742,1646243400,967531528,,0.0,0.0,0.0,0.0,0.0,0.0,0.0,0.0,0.0,0.0,0.0,0.0,0.0,0.00712483748793602,-0.0005019548698328435,-0.011942928656935692,0.0,0.0,0.0,0.0,0.0,0.0,0.0,0.0,0.0,-0.13102564215660095,0.03948718309402466,9.882563591003418,0.0,0.0,0.0,0.0,0.0,0.0,0.0,0.0,0.0
1646243400.9701533,7743,1646243400,969797620,,0.0,0.0,0.0,0.0,0.0,0.0,0.0,0.0,0.0,0.0,0.0,0.0,0.0,0.030560653656721115,0.015477010980248451,0.024276060983538628,0.0,0.0,0.0,0.0,0.0,0.0,0.0,0.0,0.0,-0.10051282495260239,0.43974360823631287,9.992051124572754,0.0,0.0,0.0,0.0,0.0,0.0,0.0,0.0,0.0
1646243400.972446,7744,1646243400,972040355,,0.0,0.0,0.0,0.0,0.0,0.0,0.0,0.0,0.0,0.0,0.0,0.0,0.0,0.008190101943910122,0.0016285729361698031,-0.0162039864808321,0.0,0.0,0.0,0.0,0.0,0.0,0.0,0.0,0.0,0.003589743748307228,0.06820512562990189,9.749743461608887,0.0,0.0,0.0,0.0,0.0,0.0,0.0,0.0,0.0
1646243400.974671,7745,1646243400,974249772,,0.0,0.0,0.0,0.0,0.0,0.0,0.0,0.0,0.0,0.0,0.0,0.0,0.0,0.008190101943910122,0.013346482068300247,0.028537116944789886,0.0,0.0,0.0,0.0,0.0,0.0,0.0,0.0,0.0,0.25487178564071655,0.29076921939849854,9.245384216308594,0.0,0.0,0.0,0.0,0.0,0.0,0.0,0.0,0.0
1646243400.97673,7746,1646243400,976463143,,0.0,0.0,0.0,0.0,0.0,0.0,0.0,0.0,0.0,0.0,0.0,0.0,0.0,0.0103206317871809,0.00588963134214282,0.005101301707327366,0.0,0.0,0.0,0.0,0.0,0.0,0.0,0.0,0.0,0.3302564322948456,-0.11846154183149338,9.19333267211914,0.0,0.0,0.0,0.0,0.0,0.0,0.0,0.0,0.0
1646243400.9791212,7747,1646243400,978654658,,0.0,0.0,0.0,0.0,0.0,0.0,0.0,0.0,0.0,0.0,0.0,0.0,0.0,0.016712216660380363,0.013346482068300247,0.00723183061927557,0.0,0.0,0.0,0.0,0.0,0.0,0.0,0.0,0.0,0.007179487496614456,0.5528205037117004,9.857436180114746,0.0,0.0,0.0,0.0,0.0,0.0,0.0,0.0,0.0
1646243400.9814727,7748,1646243400,980954998,,0.0,0.0,0.0,0.0,0.0,0.0,0.0,0.0,0.0,0.0,0.0,0.0,0.0,-0.012049921788275242,-0.009024071507155895,-0.006616605911403894,0.0,0.0,0.0,0.0,0.0,0.0,0.0,0.0,0.0,-0.12205128371715546,0.3266666829586029,10.001025199890137,0.0,0.0,0.0,0.0,0.0,0.0,0.0,0.0,0.0
1646243400.9836092,7749,1646243400,983217396,,0.0,0.0,0.0,0.0,0.0,0.0,0.0,0.0,0.0,0.0,0.0,0.0,0.0,-0.004593071062117815,0.0026938372757285833,0.011492888443171978,0.0,0.0,0.0,0.0,0.0,0.0,0.0,0.0,0.0,-0.14000000059604645,0.16871795058250427,9.956153869628906,0.0,0.0,0.0,0.0,0.0,0.0,0.0,0.0,0.0
1646243400.9859035,7750,1646243400,985462613,,0.0,0.0,0.0,0.0,0.0,0.0,0.0,0.0,0.0,0.0,0.0,0.0,0.0,0.024169068783521652,-0.0015672193840146065,-0.0162039864808321,0.0,0.0,0.0,0.0,0.0,0.0,0.0,0.0,0.0,0.17769230902194977,0.43794873356819153,9.484102249145508,0.0,0.0,0.0,0.0,0.0,0.0,0.0,0.0,0.0
1646243400.9881449,7751,1646243400,987693219,,0.0,0.0,0.0,0.0,0.0,0.0,0.0,0.0,0.0,0.0,0.0,0.0,0.0,-0.0003320134710520506,0.013346482068300247,0.01681920886039734,0.0,0.0,0.0,0.0,0.0,0.0,0.0,0.0,0.0,-0.07717949151992798,0.09153846651315689,10.169743537902832,0.0,0.0,0.0,0.0,0.0,0.0,0.0,0.0,0.0
1646243400.9903493,7752,1646243400,989940226,,0.0,0.0,0.0,0.0,0.0,0.0,0.0,0.0,0.0,0.0,0.0,0.0,0.0,0.014581688679754734,0.023999126628041267,0.021080268546938896,0.0,0.0,0.0,0.0,0.0,0.0,0.0,0.0,0.0,0.2943589687347412,0.30512821674346924,9.220256805419922,0.0,0.0,0.0,0.0,0.0,0.0,0.0,0.0,0.0
1646243400.992686,7753,1646243400,992221588,,0.0,0.0,0.0,0.0,0.0,0.0,0.0,0.0,0.0,0.0,0.0,0.0,0.0,-0.016310978680849075,0.0026938372757285833,-0.009812399744987488,0.0,0.0,0.0,0.0,0.0,0.0,0.0,0.0,0.0,-0.05205128341913223,0.46128207445144653,10.020769119262695,0.0,0.0,0.0,0.0,0.0,0.0,0.0,0.0,0.0
1646243400.9949005,7754,1646243400,994502914,,0.0,0.0,0.0,0.0,0.0,0.0,0.0,0.0,0.0,0.0,0.0,0.0,0.0,0.008190101943910122,0.00588963134214282,0.03173290938138962,0.0,0.0,0.0,0.0,0.0,0.0,0.0,0.0,0.0,0.2476923167705536,-0.028717949986457825,9.449999809265137,0.0,0.0,0.0,0.0,0.0,0.0,0.0,0.0,0.0
1646243400.9972634,7755,1646243400,996774218,,0.0,0.0,0.0,0.0,0.0,0.0,0.0,0.0,0.0,0.0,0.0,0.0,0.0,0.00712483748793602,0.0037591024301946163,-0.0162039864808321,0.0,0.0,0.0,0.0,0.0,0.0,0.0,0.0,0.0,0.1651282161474228,0.18128205835819244,9.36025619506836,0.0,0.0,0.0,0.0,0.0,0.0,0.0,0.0,0.0
1646243400.9993298,7756,1646243400,998997823,,0.0,0.0,0.0,0.0,0.0,0.0,0.0,0.0,0.0,0.0,0.0,0.0,0.0,0.00925536546856165,0.0005633095279335976,0.004036037251353264,0.0,0.0,0.0,0.0,0.0,0.0,0.0,0.0,0.0,0.14000000059604645,-0.11307692527770996,9.701282501220703,0.0,0.0,0.0,0.0,0.0,0.0,0.0,0.0,0.0
1646243401.0023406,7757,1646243401,1200798,,0.0,0.0,0.0,0.0,0.0,0.0,0.0,0.0,0.0,0.0,0.0,0.0,0.0,-0.019506771117448807,0.010150688700377941,-0.005551342852413654,0.0,0.0,0.0,0.0,0.0,0.0,0.0,0.0,0.0,-0.016153845936059952,0.5707692503929138,10.054871559143066,0.0,0.0,0.0,0.0,0.0,0.0,0.0,0.0,0.0
1646243401.0038373,7758,1646243401,3394123,,0.0,0.0,0.0,0.0,0.0,0.0,0.0,0.0,0.0,0.0,0.0,0.0,0.0,-0.015245715156197548,0.009085424244403839,0.013623417355120182,0.0,0.0,0.0,0.0,0.0,0.0,0.0,0.0,0.0,-0.02153846248984337,0.10230769217014313,9.95435905456543,0.0,0.0,0.0,0.0,0.0,0.0,0.0,0.0,0.0
1646243401.0061302,7759,1646243401,5655862,,0.0,0.0,0.0,0.0,0.0,0.0,0.0,0.0,0.0,0.0,0.0,0.0,0.0,-0.004593071062117815,0.017607539892196655,-0.015138722956180573,0.0,0.0,0.0,0.0,0.0,0.0,0.0,0.0,0.0,0.2530769407749176,0.3769230842590332,9.738973617553711,0.0,0.0,0.0,0.0,0.0,0.0,0.0,0.0,0.0
1646243401.0081291,7760,1646243401,7868843,,0.0,0.0,0.0,0.0,0.0,0.0,0.0,0.0,0.0,0.0,0.0,0.0,0.0,0.0028637798968702555,0.011215953156352043,-0.011942928656935692,0.0,0.0,0.0,0.0,0.0,0.0,0.0,0.0,0.0,0.22794872522354126,0.2441025674343109,9.672564506530762,0.0,0.0,0.0,0.0,0.0,0.0,0.0,0.0,0.0
1646243401.0106835,7761,1646243401,10233519,,0.0,0.0,0.0,0.0,0.0,0.0,0.0,0.0,0.0,0.0,0.0,0.0,0.0,-0.030159417539834976,0.011215953156352043,-0.0012902843300253153,0.0,0.0,0.0,0.0,0.0,0.0,0.0,0.0,0.0,0.23153845965862274,-0.19205129146575928,9.528974533081055,0.0,0.0,0.0,0.0,0.0,0.0,0.0,0.0,0.0
1646243401.0129256,7762,1646243401,12432831,,0.0,0.0,0.0,0.0,0.0,0.0,0.0,0.0,0.0,0.0,0.0,0.0,0.0,-0.0067235990427434444,-0.005828278139233589,0.010427623987197876,0.0,0.0,0.0,0.0,0.0,0.0,0.0,0.0,0.0,-0.06102564185857773,0.4864102602005005,10.099743843078613,0.0,0.0,0.0,0.0,0.0,0.0,0.0,0.0,0.0
1646243401.015071,7763,1646243401,14692299,,0.0,0.0,0.0,0.0,0.0,0.0,0.0,0.0,0.0,0.0,0.0,0.0,0.0,-0.0067235990427434444,0.008020159788429737,-0.008747135289013386,0.0,0.0,0.0,0.0,0.0,0.0,0.0,0.0,0.0,0.20820513367652893,-0.03769230842590332,9.476922988891602,0.0,0.0,0.0,0.0,0.0,0.0,0.0,0.0,0.0
1646243401.0174403,7764,1646243401,16986951,,0.0,0.0,0.0,0.0,0.0,0.0,0.0,0.0,0.0,0.0,0.0,0.0,0.0,-0.0035278063733130693,0.015477010980248451,0.014688681811094284,0.0,0.0,0.0,0.0,0.0,0.0,0.0,0.0,0.0,-0.23333333432674408,0.6300000548362732,10.220000267028809,0.0,0.0,0.0,0.0,0.0,0.0,0.0,0.0,0.0
1646243401.019649,7765,1646243401,19213502,,0.0,0.0,0.0,0.0,0.0,0.0,0.0,0.0,0.0,0.0,0.0,0.0,0.0,-0.02909415028989315,0.004824366886168718,0.0019055086886510253,0.0,0.0,0.0,0.0,0.0,0.0,0.0,0.0,0.0,0.0735897421836853,0.02153846248984337,9.703076362609863,0.0,0.0,0.0,0.0,0.0,0.0,0.0,0.0,0.0
1646243401.0220292,7766,1646243401,21542977,,0.0,0.0,0.0,0.0,0.0,0.0,0.0,0.0,0.0,0.0,0.0,0.0,0.0,-0.0067235990427434444,-0.013285127468407154,-0.005551342852413654,0.0,0.0,0.0,0.0,0.0,0.0,0.0,0.0,0.0,-0.16153846681118011,0.3141025900840759,10.139230728149414,0.0,0.0,0.0,0.0,0.0,0.0,0.0,0.0,0.0
1646243401.0243058,7767,1646243401,23829177,,0.0,0.0,0.0,0.0,0.0,0.0,0.0,0.0,0.0,0.0,0.0,0.0,0.0,-0.012049921788275242,0.032521240413188934,-0.011942928656935692,0.0,0.0,0.0,0.0,0.0,0.0,0.0,0.0,0.0,0.23333333432674408,0.18307693302631378,9.638461112976074,0.0,0.0,0.0,0.0,0.0,0.0,0.0,0.0,0.0
1646243401.0265377,7768,1646243401,26100270,,0.0,0.0,0.0,0.0,0.0,0.0,0.0,0.0,0.0,0.0,0.0,0.0,0.0,-0.016310978680849075,-0.012219863012433052,0.021080268546938896,0.0,0.0,0.0,0.0,0.0,0.0,0.0,0.0,0.0,-0.1651282161474228,0.09333333373069763,10.14640998840332,0.0,0.0,0.0,0.0,0.0,0.0,0.0,0.0,0.0
1646243401.0285347,7769,1646243401,28272447,,0.0,0.0,0.0,0.0,0.0,0.0,0.0,0.0,0.0,0.0,0.0,0.0,0.0,-0.015245715156197548,-0.0026324838399887085,0.006166566163301468,0.0,0.0,0.0,0.0,0.0,0.0,0.0,0.0,0.0,0.1741025745868683,0.25487178564071655,10.020769119262695,0.0,0.0,0.0,0.0,0.0,0.0,0.0,0.0,0.0
1646243401.0306783,7770,1646243401,30488733,,0.0,0.0,0.0,0.0,0.0,0.0,0.0,0.0,0.0,0.0,0.0,0.0,0.0,-0.022702563554048538,-0.0047630127519369125,0.0008402442326769233,0.0,0.0,0.0,0.0,0.0,0.0,0.0,0.0,0.0,0.13461539149284363,-0.17230769991874695,9.437435150146484,0.0,0.0,0.0,0.0,0.0,0.0,0.0,0.0,0.0
1646243401.0328336,7771,1646243401,32689576,,0.0,0.0,0.0,0.0,0.0,0.0,0.0,0.0,0.0,0.0,0.0,0.0,0.0,-0.012049921788275242,-0.005828278139233589,0.002970772795379162,0.0,0.0,0.0,0.0,0.0,0.0,0.0,0.0,0.0,0.19384616613388062,-0.14358974993228912,9.469743728637695,0.0,0.0,0.0,0.0,0.0,0.0,0.0,0.0,0.0
1646243401.0350218,7772,1646243401,34815514,,0.0,0.0,0.0,0.0,0.0,0.0,0.0,0.0,0.0,0.0,0.0,0.0,0.0,-0.02163730002939701,0.00588963134214282,-0.008747135289013386,0.0,0.0,0.0,0.0,0.0,0.0,0.0,0.0,0.0,-0.06282051652669907,0.13641025125980377,10.081794738769531,0.0,0.0,0.0,0.0,0.0,0.0,0.0,0.0,0.0
1646243401.037192,7773,1646243401,36969822,,0.0,0.0,0.0,0.0,0.0,0.0,0.0,0.0,0.0,0.0,0.0,0.0,0.0,-0.03655100241303444,-0.0026324838399887085,0.01255815289914608,0.0,0.0,0.0,0.0,0.0,0.0,0.0,0.0,0.0,-0.3212820589542389,0.28717949986457825,10.478462219238281,0.0,0.0,0.0,0.0,0.0,0.0,0.0,0.0,0.0
1646243401.0393085,7774,1646243401,39093236,,0.0,0.0,0.0,0.0,0.0,0.0,0.0,0.0,0.0,0.0,0.0,0.0,0.0,-0.01844150573015213,-0.0047630127519369125,-0.0012902843300253153,0.0,0.0,0.0,0.0,0.0,0.0,0.0,0.0,0.0,-0.12025640904903412,0.06282051652669907,9.624102592468262,0.0,0.0,0.0,0.0,0.0,0.0,0.0,0.0,0.0
1646243401.0413628,7775,1646243401,41215526,,0.0,0.0,0.0,0.0,0.0,0.0,0.0,0.0,0.0,0.0,0.0,0.0,0.0,-0.02909415028989315,-0.014350391924381256,0.017884474247694016,0.0,0.0,0.0,0.0,0.0,0.0,0.0,0.0,0.0,0.4056410491466522,0.2028205245733261,9.581025123596191,0.0,0.0,0.0,0.0,0.0,0.0,0.0,0.0,0.0
1646243401.0441375,7776,1646243401,43377007,,0.0,0.0,0.0,0.0,0.0,0.0,0.0,0.0,0.0,0.0,0.0,0.0,0.0,-0.04081205651164055,-0.01115459855645895,-0.021530307829380035,0.0,0.0,0.0,0.0,0.0,0.0,0.0,0.0,0.0,0.14179487526416779,-0.025128206238150597,9.624102592468262,0.0,0.0,0.0,0.0,0.0,0.0,0.0,0.0,0.0
1646243401.0457294,7777,1646243401,45547417,,0.0,0.0,0.0,0.0,0.0,0.0,0.0,0.0,0.0,0.0,0.0,0.0,0.0,-0.019506771117448807,-0.015415656380355358,0.02001500315964222,0.0,0.0,0.0,0.0,0.0,0.0,0.0,0.0,0.0,0.21717949211597443,-0.20461538434028625,9.44820499420166,0.0,0.0,0.0,0.0,0.0,0.0,0.0,0.0,0.0
1646243401.0479207,7778,1646243401,47747689,,0.0,0.0,0.0,0.0,0.0,0.0,0.0,0.0,0.0,0.0,0.0,0.0,0.0,-0.02163730002939701,-0.005828278139233589,-0.02685662917792797,0.0,0.0,0.0,0.0,0.0,0.0,0.0,0.0,0.0,-0.17230769991874695,0.26384615898132324,10.638204574584961,0.0,0.0,0.0,0.0,0.0,0.0,0.0,0.0,0.0
1646243401.050194,7779,1646243401,49900428,,0.0,0.0,0.0,0.0,0.0,0.0,0.0,0.0,0.0,0.0,0.0,0.0,0.0,-0.02909415028989315,0.011215953156352043,0.017884474247694016,0.0,0.0,0.0,0.0,0.0,0.0,0.0,0.0,0.0,0.2853846251964569,-0.30153846740722656,9.385384559631348,0.0,0.0,0.0,0.0,0.0,0.0,0.0,0.0,0.0
1646243401.052226,7780,1646243401,52036204,,0.0,0.0,0.0,0.0,0.0,0.0,0.0,0.0,0.0,0.0,0.0,0.0,0.0,-0.03335520997643471,0.00588963134214282,-0.0034208132419735193,0.0,0.0,0.0,0.0,0.0,0.0,0.0,0.0,0.0,-0.032307691872119904,0.4774359166622162,10.062051773071289,0.0,0.0,0.0,0.0,0.0,0.0,0.0,0.0,0.0
1646243401.0545018,7781,1646243401,54180673,,0.0,0.0,0.0,0.0,0.0,0.0,0.0,0.0,0.0,0.0,0.0,0.0,0.0,-0.022702563554048538,-0.010089334100484848,-0.02046504244208336,0.0,0.0,0.0,0.0,0.0,0.0,0.0,0.0,0.0,-0.15435898303985596,-0.005384615622460842,10.307948112487793,0.0,0.0,0.0,0.0,0.0,0.0,0.0,0.0,0.0
1646243401.056495,7782,1646243401,56358118,,0.0,0.0,0.0,0.0,0.0,0.0,0.0,0.0,0.0,0.0,0.0,0.0,0.0,-0.02163730002939701,-0.012219863012433052,-0.00022502047067973763,0.0,0.0,0.0,0.0,0.0,0.0,0.0,0.0,0.0,0.08615384995937347,0.4128205180168152,9.762307167053223,0.0,0.0,0.0,0.0,0.0,0.0,0.0,0.0,0.0
1646243401.0587301,7783,1646243401,58530398,,0.0,0.0,0.0,0.0,0.0,0.0,0.0,0.0,0.0,0.0,0.0,0.0,0.0,-0.05146470293402672,-0.006893542595207691,0.009362359531223774,0.0,0.0,0.0,0.0,0.0,0.0,0.0,0.0,0.0,0.3643589913845062,-0.3141025900840759,9.318974494934082,0.0,0.0,0.0,0.0,0.0,0.0,0.0,0.0,0.0
1646243401.060978,7784,1646243401,60745902,,0.0,0.0,0.0,0.0,0.0,0.0,0.0,0.0,0.0,0.0,0.0,0.0,0.0,-0.014180450700223446,-0.0047630127519369125,0.009362359531223774,0.0,0.0,0.0,0.0,0.0,0.0,0.0,0.0,0.0,0.3823077082633972,-0.32487180829048157,9.288461685180664,0.0,0.0,0.0,0.0,0.0,0.0,0.0,0.0,0.0
1646243401.063142,7785,1646243401,62891732,,0.0,0.0,0.0,0.0,0.0,0.0,0.0,0.0,0.0,0.0,0.0,0.0,0.0,-0.031224681064486504,0.0016285729361698031,0.006166566163301468,0.0,0.0,0.0,0.0,0.0,0.0,0.0,0.0,0.0,0.18487180769443512,-0.15974359214305878,9.703076362609863,0.0,0.0,0.0,0.0,0.0,0.0,0.0,0.0,0.0
1646243401.0651863,7786,1646243401,65023243,,0.0,0.0,0.0,0.0,0.0,0.0,0.0,0.0,0.0,0.0,0.0,0.0,0.0,-0.03228994458913803,-0.0005019548698328435,0.01575394533574581,0.0,0.0,0.0,0.0,0.0,0.0,0.0,0.0,0.0,-0.2530769407749176,0.023333333432674408,10.0853853225708,0.0,0.0,0.0,0.0,0.0,0.0,0.0,0.0,0.0
1646243401.067348,7787,1646243401,67185386,,0.0,0.0,0.0,0.0,0.0,0.0,0.0,0.0,0.0,0.0,0.0,0.0,0.0,-0.03655100241303444,0.017607539892196655,-0.004486078396439552,0.0,0.0,0.0,0.0,0.0,0.0,0.0,0.0,0.0,0.3482051491737366,0.13461539149284363,9.636667251586914,0.0,0.0,0.0,0.0,0.0,0.0,0.0,0.0,0.0
1646243401.0695498,7788,1646243401,69351324,,0.0,0.0,0.0,0.0,0.0,0.0,0.0,0.0,0.0,0.0,0.0,0.0,0.0,-0.041877321898937225,0.02293386124074459,0.005101301707327366,0.0,0.0,0.0,0.0,0.0,0.0,0.0,0.0,0.0,-0.07538461685180664,-0.023333333432674408,9.73717975616455,0.0,0.0,0.0,0.0,0.0,0.0,0.0,0.0,0.0
1646243401.0718021,7789,1646243401,71539531,,0.0,0.0,0.0,0.0,0.0,0.0,0.0,0.0,0.0,0.0,0.0,0.0,0.0,-0.016310978680849075,0.00588963134214282,-0.0023555487859994173,0.0,0.0,0.0,0.0,0.0,0.0,0.0,0.0,0.0,-0.1561538577079773,0.3320513069629669,10.544872283935547,0.0,0.0,0.0,0.0,0.0,0.0,0.0,0.0,0.0
1646243401.0739386,7790,1646243401,73821036,,0.0,0.0,0.0,0.0,0.0,0.0,0.0,0.0,0.0,0.0,0.0,0.0,0.0,-0.02163730002939701,0.00588963134214282,-0.013008194044232368,0.0,0.0,0.0,0.0,0.0,0.0,0.0,0.0,0.0,-0.17769230902194977,0.15256410837173462,10.114103317260742,0.0,0.0,0.0,0.0,0.0,0.0,0.0,0.0,0.0
1646243401.0762455,7791,1646243401,75945849,,0.0,0.0,0.0,0.0,0.0,0.0,0.0,0.0,0.0,0.0,0.0,0.0,0.0,-0.030159417539834976,0.01654227450489998,-0.008747135289013386,0.0,0.0,0.0,0.0,0.0,0.0,0.0,0.0,0.0,0.11666666716337204,0.16692309081554413,9.837692260742188,0.0,0.0,0.0,0.0,0.0,0.0,0.0,0.0,0.0
1646243401.0783546,7792,1646243401,78092850,,0.0,0.0,0.0,0.0,0.0,0.0,0.0,0.0,0.0,0.0,0.0,0.0,0.0,-0.023767828941345215,-0.0026324838399887085,-0.009812399744987488,0.0,0.0,0.0,0.0,0.0,0.0,0.0,0.0,0.0,0.42000001668930054,-0.24051281809806824,9.45897388458252,0.0,0.0,0.0,0.0,0.0,0.0,0.0,0.0,0.0
1646243401.0805163,7793,1646243401,80232876,,0.0,0.0,0.0,0.0,0.0,0.0,0.0,0.0,0.0,0.0,0.0,0.0,0.0,-0.023767828941345215,0.0005633095279335976,-0.013008194044232368,0.0,0.0,0.0,0.0,0.0,0.0,0.0,0.0,0.0,0.27282050251960754,0.2800000011920929,9.509230613708496,0.0,0.0,0.0,0.0,0.0,0.0,0.0,0.0,0.0
1646243401.0826116,7794,1646243401,82376242,,0.0,0.0,0.0,0.0,0.0,0.0,0.0,0.0,0.0,0.0,0.0,0.0,0.0,-0.015245715156197548,0.006954895332455635,-0.024726100265979767,0.0,0.0,0.0,0.0,0.0,0.0,0.0,0.0,0.0,0.11307692527770996,-0.10410256683826447,9.830512046813965,0.0,0.0,0.0,0.0,0.0,0.0,0.0,0.0,0.0
1646243401.0852478,7795,1646243401,84672891,,0.0,0.0,0.0,0.0,0.0,0.0,0.0,0.0,0.0,0.0,0.0,0.0,0.0,-0.04081205651164055,0.011215953156352043,0.0008402442326769233,0.0,0.0,0.0,0.0,0.0,0.0,0.0,0.0,0.0,-0.1328205168247223,0.5258974432945251,9.966922760009766,0.0,0.0,0.0,0.0,0.0,0.0,0.0,0.0,0.0
1646243401.0869968,7796,1646243401,86808521,,0.0,0.0,0.0,0.0,0.0,0.0,0.0,0.0,0.0,0.0,0.0,0.0,0.0,-0.04081205651164055,-0.007958807051181793,-0.009812399744987488,0.0,0.0,0.0,0.0,0.0,0.0,0.0,0.0,0.0,-0.08974359184503555,0.1471794843673706,10.080000877380371,0.0,0.0,0.0,0.0,0.0,0.0,0.0,0.0,0.0
1646243401.0890892,7797,1646243401,88946403,,0.0,0.0,0.0,0.0,0.0,0.0,0.0,0.0,0.0,0.0,0.0,0.0,0.0,-0.03655100241303444,0.0026938372757285833,0.005101301707327366,0.0,0.0,0.0,0.0,0.0,0.0,0.0,0.0,0.0,0.2656410336494446,-0.2979487180709839,9.390769004821777,0.0,0.0,0.0,0.0,0.0,0.0,0.0,0.0,0.0
1646243401.0912902,7798,1646243401,91071875,,0.0,0.0,0.0,0.0,0.0,0.0,0.0,0.0,0.0,0.0,0.0,0.0,0.0,-0.014180450700223446,-0.005828278139233589,-0.011942928656935692,0.0,0.0,0.0,0.0,0.0,0.0,0.0,0.0,0.0,-0.12564103305339813,0.4325641095638275,10.06384563446045,0.0,0.0,0.0,0.0,0.0,0.0,0.0,0.0,0.0
1646243401.0934284,7799,1646243401,93199422,,0.0,0.0,0.0,0.0,0.0,0.0,0.0,0.0,0.0,0.0,0.0,0.0,0.0,-0.017376242205500603,0.0026938372757285833,-0.015138722956180573,0.0,0.0,0.0,0.0,0.0,0.0,0.0,0.0,0.0,0.1974359005689621,-0.22256410121917725,9.683333396911621,0.0,0.0,0.0,0.0,0.0,0.0,0.0,0.0,0.0
1646243401.095612,7800,1646243401,95440451,,0.0,0.0,0.0,0.0,0.0,0.0,0.0,0.0,0.0,0.0,0.0,0.0,0.0,-0.024833092465996742,-0.0036977482959628105,0.005101301707327366,0.0,0.0,0.0,0.0,0.0,0.0,0.0,0.0,0.0,0.4092307686805725,0.1741025745868683,9.503846168518066,0.0,0.0,0.0,0.0,0.0,0.0,0.0,0.0,0.0
1646243401.0978775,7801,1646243401,97615730,,0.0,0.0,0.0,0.0,0.0,0.0,0.0,0.0,0.0,0.0,0.0,0.0,0.0,-0.023767828941345215,0.0026938372757285833,-0.015138722956180573,0.0,0.0,0.0,0.0,0.0,0.0,0.0,0.0,0.0,0.3033333420753479,-0.3069230914115906,9.252564430236816,0.0,0.0,0.0,0.0,0.0,0.0,0.0,0.0,0.0
1646243401.1000268,7802,1646243401,99798839,,0.0,0.0,0.0,0.0,0.0,0.0,0.0,0.0,0.0,0.0,0.0,0.0,0.0,-0.012049921788275242,-0.009024071507155895,0.009362359531223774,0.0,0.0,0.0,0.0,0.0,0.0,0.0,0.0,0.0,0.20820513367652893,-0.30153846740722656,9.247179985046387,0.0,0.0,0.0,0.0,0.0,0.0,0.0,0.0,0.0
1646243401.1022565,7803,1646243401,101980243,,0.0,0.0,0.0,0.0,0.0,0.0,0.0,0.0,0.0,0.0,0.0,0.0,0.0,-0.016310978680849075,-0.005828278139233589,-0.01407345850020647,0.0,0.0,0.0,0.0,0.0,0.0,0.0,0.0,0.0,-0.18307693302631378,0.1794871836900711,10.05846118927002,0.0,0.0,0.0,0.0,0.0,0.0,0.0,0.0,0.0
1646243401.1043572,7804,1646243401,104100552,,0.0,0.0,0.0,0.0,0.0,0.0,0.0,0.0,0.0,0.0,0.0,0.0,0.0,-0.004593071062117815,0.01973806880414486,0.01681920886039734,0.0,0.0,0.0,0.0,0.0,0.0,0.0,0.0,0.0,-0.13102564215660095,-0.07717949151992798,9.918461799621582,0.0,0.0,0.0,0.0,0.0,0.0,0.0,0.0,0.0
1646243401.1065328,7805,1646243401,106234393,,0.0,0.0,0.0,0.0,0.0,0.0,0.0,0.0,0.0,0.0,0.0,0.0,0.0,-0.008854128420352936,-0.015415656380355358,-0.013008194044232368,0.0,0.0,0.0,0.0,0.0,0.0,0.0,0.0,0.0,0.18666666746139526,-0.1794871836900711,9.462564468383789,0.0,0.0,0.0,0.0,0.0,0.0,0.0,0.0,0.0
1646243401.1087515,7806,1646243401,108423697,,0.0,0.0,0.0,0.0,0.0,0.0,0.0,0.0,0.0,0.0,0.0,0.0,0.0,-0.0035278063733130693,0.01973806880414486,0.01575394533574581,0.0,0.0,0.0,0.0,0.0,0.0,0.0,0.0,0.0,-0.23333333432674408,-0.1471794843673706,9.839487075805664,0.0,0.0,0.0,0.0,0.0,0.0,0.0,0.0,0.0
1646243401.110854,7807,1646243401,110605066,,0.0,0.0,0.0,0.0,0.0,0.0,0.0,0.0,0.0,0.0,0.0,0.0,0.0,-0.012049921788275242,0.008020159788429737,-0.0023555487859994173,0.0,0.0,0.0,0.0,0.0,0.0,0.0,0.0,0.0,-0.23512820899486542,0.14897435903549194,10.10692310333252,0.0,0.0,0.0,0.0,0.0,0.0,0.0,0.0,0.0
1646243401.1129656,7808,1646243401,112736085,,0.0,0.0,0.0,0.0,0.0,0.0,0.0,0.0,0.0,0.0,0.0,0.0,0.0,-0.008854128420352936,-0.010089334100484848,-0.013008194044232368,0.0,0.0,0.0,0.0,0.0,0.0,0.0,0.0,0.0,0.028717949986457825,-0.3212820589542389,9.509230613708496,0.0,0.0,0.0,0.0,0.0,0.0,0.0,0.0,0.0
1646243401.1150854,7809,1646243401,114863842,,0.0,0.0,0.0,0.0,0.0,0.0,0.0,0.0,0.0,0.0,0.0,0.0,0.0,-0.022702563554048538,0.01654227450489998,-0.0023555487859994173,0.0,0.0,0.0,0.0,0.0,0.0,0.0,0.0,0.0,0.11846154183149338,-0.02153846248984337,9.302820205688477,0.0,0.0,0.0,0.0,0.0,0.0,0.0,0.0,0.0
1646243401.117214,7810,1646243401,117013803,,0.0,0.0,0.0,0.0,0.0,0.0,0.0,0.0,0.0,0.0,0.0,0.0,0.0,0.004994308575987816,0.0016285729361698031,0.006166566163301468,0.0,0.0,0.0,0.0,0.0,0.0,0.0,0.0,0.0,0.27282050251960754,-0.39666667580604553,9.037178993225098,0.0,0.0,0.0,0.0,0.0,0.0,0.0,0.0,0.0
1646243401.1193948,7811,1646243401,119200326,,0.0,0.0,0.0,0.0,0.0,0.0,0.0,0.0,0.0,0.0,0.0,0.0,0.0,-0.005658335518091917,0.027194919064641,0.018949739634990692,0.0,0.0,0.0,0.0,0.0,0.0,0.0,0.0,0.0,-0.06820512562990189,0.22615385055541992,9.85025691986084,0.0,0.0,0.0,0.0,0.0,0.0,0.0,0.0,0.0
1646243401.1216724,7812,1646243401,121437143,,0.0,0.0,0.0,0.0,0.0,0.0,0.0,0.0,0.0,0.0,0.0,0.0,0.0,-0.0035278063733130693,0.017607539892196655,-0.021530307829380035,0.0,0.0,0.0,0.0,0.0,0.0,0.0,0.0,0.0,-0.19025641679763794,-0.36974361538887024,9.60615348815918,0.0,0.0,0.0,0.0,0.0,0.0,0.0,0.0,0.0
1646243401.1238868,7813,1646243401,123629989,,0.0,0.0,0.0,0.0,0.0,0.0,0.0,0.0,0.0,0.0,0.0,0.0,0.0,-0.004593071062117815,0.008020159788429737,0.03173290938138962,0.0,0.0,0.0,0.0,0.0,0.0,0.0,0.0,0.0,0.03589743748307228,0.1741025745868683,9.64384651184082,0.0,0.0,0.0,0.0,0.0,0.0,0.0,0.0,0.0
1646243401.1264179,7814,1646243401,125777535,,0.0,0.0,0.0,0.0,0.0,0.0,0.0,0.0,0.0,0.0,0.0,0.0,0.0,-0.005658335518091917,-0.0015672193840146065,-0.01407345850020647,0.0,0.0,0.0,0.0,0.0,0.0,0.0,0.0,0.0,-0.05564102530479431,-0.025128206238150597,9.765897750854492,0.0,0.0,0.0,0.0,0.0,0.0,0.0,0.0,0.0
1646243401.1280155,7815,1646243401,127901977,,0.0,0.0,0.0,0.0,0.0,0.0,0.0,0.0,0.0,0.0,0.0,0.0,0.0,0.003929044120013714,0.025064390152692795,0.02640658989548683,0.0,0.0,0.0,0.0,0.0,0.0,0.0,0.0,0.0,0.29076921939849854,-0.4882051348686218,9.367435455322266,0.0,0.0,0.0,0.0,0.0,0.0,0.0,0.0,0.0
1646243401.1302192,7816,1646243401,130022552,,0.0,0.0,0.0,0.0,0.0,0.0,0.0,0.0,0.0,0.0,0.0,0.0,0.0,0.001798515673726797,0.0037591024301946163,-0.011942928656935692,0.0,0.0,0.0,0.0,0.0,0.0,0.0,0.0,0.0,0.08076923340559006,-0.15974359214305878,9.681538581848145,0.0,0.0,0.0,0.0,0.0,0.0,0.0,0.0,0.0
1646243401.1324527,7817,1646243401,132215117,,0.0,0.0,0.0,0.0,0.0,0.0,0.0,0.0,0.0,0.0,0.0,0.0,0.0,-0.0013972773449495435,0.028260184451937675,0.022145532071590424,0.0,0.0,0.0,0.0,0.0,0.0,0.0,0.0,0.0,0.007179487496614456,-0.29615384340286255,9.527179718017578,0.0,0.0,0.0,0.0,0.0,0.0,0.0,0.0,0.0
1646243401.134646,7818,1646243401,134417726,,0.0,0.0,0.0,0.0,0.0,0.0,0.0,0.0,0.0,0.0,0.0,0.0,0.0,-0.0003320134710520506,0.01441174652427435,0.018949739634990692,0.0,0.0,0.0,0.0,0.0,0.0,0.0,0.0,0.0,-0.2387179583311081,0.22256410121917725,9.93820571899414,0.0,0.0,0.0,0.0,0.0,0.0,0.0,0.0,0.0
1646243401.1367393,7819,1646243401,136548719,,0.0,0.0,0.0,0.0,0.0,0.0,0.0,0.0,0.0,0.0,0.0,0.0,0.0,0.00712483748793602,0.031455978751182556,0.009362359531223774,0.0,0.0,0.0,0.0,0.0,0.0,0.0,0.0,0.0,-0.15076923370361328,-0.24051281809806824,9.848461151123047,0.0,0.0,0.0,0.0,0.0,0.0,0.0,0.0,0.0
1646243401.1390562,7820,1646243401,138753213,,0.0,0.0,0.0,0.0,0.0,0.0,0.0,0.0,0.0,0.0,0.0,0.0,0.0,0.014581688679754734,-0.0026324838399887085,0.010427623987197876,0.0,0.0,0.0,0.0,0.0,0.0,0.0,0.0,0.0,-0.3033333420753479,-0.3500000238418579,9.94538402557373,0.0,0.0,0.0,0.0,0.0,0.0,0.0,0.0,0.0
1646243401.1410987,7821,1646243401,140925148,,0.0,0.0,0.0,0.0,0.0,0.0,0.0,0.0,0.0,0.0,0.0,0.0,0.0,0.00712483748793602,0.010150688700377941,-0.0076818703673779964,0.0,0.0,0.0,0.0,0.0,0.0,0.0,0.0,0.0,0.05564102530479431,-0.18128205835819244,9.941795349121094,0.0,0.0,0.0,0.0,0.0,0.0,0.0,0.0,0.0
1646243401.143253,7822,1646243401,143057997,,0.0,0.0,0.0,0.0,0.0,0.0,0.0,0.0,0.0,0.0,0.0,0.0,0.0,0.0028637798968702555,0.0037591024301946163,0.02001500315964222,0.0,0.0,0.0,0.0,0.0,0.0,0.0,0.0,0.0,-0.36076924204826355,-0.3535897731781006,9.914872169494629,0.0,0.0,0.0,0.0,0.0,0.0,0.0,0.0,0.0
1646243401.1454122,7823,1646243401,145197073,,0.0,0.0,0.0,0.0,0.0,0.0,0.0,0.0,0.0,0.0,0.0,0.0,0.0,0.008190101943910122,0.0005633095279335976,-0.004486078396439552,0.0,0.0,0.0,0.0,0.0,0.0,0.0,0.0,0.0,-0.12025640904903412,0.22615385055541992,10.080000877380371,0.0,0.0,0.0,0.0,0.0,0.0,0.0,0.0,0.0
1646243401.147737,7824,1646243401,147448042,,0.0,0.0,0.0,0.0,0.0,0.0,0.0,0.0,0.0,0.0,0.0,0.0,0.0,0.011385894380509853,0.035717036575078964,0.03173290938138962,0.0,0.0,0.0,0.0,0.0,0.0,0.0,0.0,0.0,0.3535897731781006,-0.4648717939853668,9.451794624328613,0.0,0.0,0.0,0.0,0.0,0.0,0.0,0.0,0.0
1646243401.1498785,7825,1646243401,149577475,,0.0,0.0,0.0,0.0,0.0,0.0,0.0,0.0,0.0,0.0,0.0,0.0,0.0,0.03375644609332085,0.012281217612326145,-0.004486078396439552,0.0,0.0,0.0,0.0,0.0,0.0,0.0,0.0,0.0,0.2297435998916626,-0.0735897421836853,9.755127906799316,0.0,0.0,0.0,0.0,0.0,0.0,0.0,0.0,0.0
1646243401.1520395,7826,1646243401,151772881,,0.0,0.0,0.0,0.0,0.0,0.0,0.0,0.0,0.0,0.0,0.0,0.0,0.0,0.00925536546856165,0.00588963134214282,0.005101301707327366,0.0,0.0,0.0,0.0,0.0,0.0,0.0,0.0,0.0,-0.0412820540368557,-0.17589744925498962,9.598974227905273,0.0,0.0,0.0,0.0,0.0,0.0,0.0,0.0,0.0
1646243401.1541727,7827,1646243401,153951003,,0.0,0.0,0.0,0.0,0.0,0.0,0.0,0.0,0.0,0.0,0.0,0.0,0.0,0.03908276557922363,0.011215953156352043,-0.00022502047067973763,0.0,0.0,0.0,0.0,0.0,0.0,0.0,0.0,0.0,-0.15076923370361328,-0.22256410121917725,10.105128288269043,0.0,0.0,0.0,0.0,0.0,0.0,0.0,0.0,0.0
1646243401.15627,7828,1646243401,156077872,,0.0,0.0,0.0,0.0,0.0,0.0,0.0,0.0,0.0,0.0,0.0,0.0,0.0,0.024169068783521652,-0.013285127468407154,-0.0162039864808321,0.0,0.0,0.0,0.0,0.0,0.0,0.0,0.0,0.0,-0.43435898423194885,0.048461541533470154,10.176923751831055,0.0,0.0,0.0,0.0,0.0,0.0,0.0,0.0,0.0
1646243401.1584032,7829,1646243401,158218399,,0.0,0.0,0.0,0.0,0.0,0.0,0.0,0.0,0.0,0.0,0.0,0.0,0.0,0.019908009096980095,0.020803332328796387,0.004036037251353264,0.0,0.0,0.0,0.0,0.0,0.0,0.0,0.0,0.0,-0.1561538577079773,-0.19384616613388062,9.963333129882812,0.0,0.0,0.0,0.0,0.0,0.0,0.0,0.0,0.0
1646243401.1606822,7830,1646243401,160411171,,0.0,0.0,0.0,0.0,0.0,0.0,0.0,0.0,0.0,0.0,0.0,0.0,0.0,0.03269118070602417,0.0026938372757285833,-0.009812399744987488,0.0,0.0,0.0,0.0,0.0,0.0,0.0,0.0,0.0,-0.2028205245733261,0.05743589997291565,10.431795120239258,0.0,0.0,0.0,0.0,0.0,0.0,0.0,0.0,0.0
1646243401.1629436,7831,1646243401,162684199,,0.0,0.0,0.0,0.0,0.0,0.0,0.0,0.0,0.0,0.0,0.0,0.0,0.0,0.030560653656721115,-0.015415656380355358,0.004036037251353264,0.0,0.0,0.0,0.0,0.0,0.0,0.0,0.0,0.0,-0.3069230914115906,-0.13102564215660095,10.220000267028809,0.0,0.0,0.0,0.0,0.0,0.0,0.0,0.0,0.0
1646243401.1668055,7832,1646243401,164895605,,0.0,0.0,0.0,0.0,0.0,0.0,0.0,0.0,0.0,0.0,0.0,0.0,0.0,0.011385894380509853,-0.010089334100484848,-0.008747135289013386,0.0,0.0,0.0,0.0,0.0,0.0,0.0,0.0,0.0,-0.0735897421836853,0.1705128252506256,9.800000190734863,0.0,0.0,0.0,0.0,0.0,0.0,0.0,0.0,0.0
1646243401.1674182,7833,1646243401,167104005,,0.0,0.0,0.0,0.0,0.0,0.0,0.0,0.0,0.0,0.0,0.0,0.0,0.0,0.03695223852992058,0.0037591024301946163,-0.01087766420096159,0.0,0.0,0.0,0.0,0.0,0.0,0.0,0.0,0.0,0.11307692527770996,-0.2853846251964569,9.602563858032227,0.0,0.0,0.0,0.0,0.0,0.0,0.0,0.0,0.0
1646243401.1696978,7834,1646243401,169285675,,0.0,0.0,0.0,0.0,0.0,0.0,0.0,0.0,0.0,0.0,0.0,0.0,0.0,0.02949538826942444,-0.0026324838399887085,-0.0012902843300253153,0.0,0.0,0.0,0.0,0.0,0.0,0.0,0.0,0.0,0.0412820540368557,0.09871795028448105,9.419486999511719,0.0,0.0,0.0,0.0,0.0,0.0,0.0,0.0,0.0
1646243401.1719093,7835,1646243401,171537674,,0.0,0.0,0.0,0.0,0.0,0.0,0.0,0.0,0.0,0.0,0.0,0.0,0.0,0.0220385380089283,-0.009024071507155895,-0.009812399744987488,0.0,0.0,0.0,0.0,0.0,0.0,0.0,0.0,0.0,-0.1794871836900711,-0.3446153998374939,9.771282196044922,0.0,0.0,0.0,0.0,0.0,0.0,0.0,0.0,0.0
1646243401.174176,7836,1646243401,173766695,,0.0,0.0,0.0,0.0,0.0,0.0,0.0,0.0,0.0,0.0,0.0,0.0,0.0,0.008190101943910122,-0.005828278139233589,0.005101301707327366,0.0,0.0,0.0,0.0,0.0,0.0,0.0,0.0,0.0,-0.3141025900840759,0.3625641167163849,10.306154251098633,0.0,0.0,0.0,0.0,0.0,0.0,0.0,0.0,0.0
1646243401.1763976,7837,1646243401,175995228,,0.0,0.0,0.0,0.0,0.0,0.0,0.0,0.0,0.0,0.0,0.0,0.0,0.0,0.03482171148061752,-0.010089334100484848,-0.006616605911403894,0.0,0.0,0.0,0.0,0.0,0.0,0.0,0.0,0.0,-0.22615385055541992,0.16333334147930145,10.431795120239258,0.0,0.0,0.0,0.0,0.0,0.0,0.0,0.0,0.0
1646243401.1786377,7838,1646243401,178189629,,0.0,0.0,0.0,0.0,0.0,0.0,0.0,0.0,0.0,0.0,0.0,0.0,0.0,0.026299597695469856,-0.012219863012433052,0.002970772795379162,0.0,0.0,0.0,0.0,0.0,0.0,0.0,0.0,0.0,-0.03589743748307228,-0.14897435903549194,10.062051773071289,0.0,0.0,0.0,0.0,0.0,0.0,0.0,0.0,0.0
1646243401.1808248,7839,1646243401,180392180,,0.0,0.0,0.0,0.0,0.0,0.0,0.0,0.0,0.0,0.0,0.0,0.0,0.0,0.015646953135728836,0.015477010980248451,-0.0034208132419735193,0.0,0.0,0.0,0.0,0.0,0.0,0.0,0.0,0.0,0.2476923167705536,-0.048461541533470154,9.607949256896973,0.0,0.0,0.0,0.0,0.0,0.0,0.0,0.0,0.0
1646243401.1830103,7840,1646243401,182655621,,0.0,0.0,0.0,0.0,0.0,0.0,0.0,0.0,0.0,0.0,0.0,0.0,0.0,0.04653962329030037,-0.02713356725871563,-0.01407345850020647,0.0,0.0,0.0,0.0,0.0,0.0,0.0,0.0,0.0,0.1471794843673706,-0.23692308366298676,9.54692268371582,0.0,0.0,0.0,0.0,0.0,0.0,0.0,0.0,0.0
1646243401.1865044,7841,1646243401,184845196,,0.0,0.0,0.0,0.0,0.0,0.0,0.0,0.0,0.0,0.0,0.0,0.0,0.0,0.003929044120013714,-0.007958807051181793,-0.02366083674132824,0.0,0.0,0.0,0.0,0.0,0.0,0.0,0.0,0.0,0.06102564185857773,0.18128205835819244,10.099743843078613,0.0,0.0,0.0,0.0,0.0,0.0,0.0,0.0,0.0
1646243401.1875277,7842,1646243401,187118791,,0.0,0.0,0.0,0.0,0.0,0.0,0.0,0.0,0.0,0.0,0.0,0.0,0.0,0.03269118070602417,-0.007958807051181793,-0.006616605911403894,0.0,0.0,0.0,0.0,0.0,0.0,0.0,0.0,0.0,-0.01974359154701233,-0.08076923340559006,9.839487075805664,0.0,0.0,0.0,0.0,0.0,0.0,0.0,0.0,0.0
1646243401.1898093,7843,1646243401,189344437,,0.0,0.0,0.0,0.0,0.0,0.0,0.0,0.0,0.0,0.0,0.0,0.0,0.0,0.030560653656721115,-0.013285127468407154,-0.0034208132419735193,0.0,0.0,0.0,0.0,0.0,0.0,0.0,0.0,0.0,0.3625641167163849,-0.4415384829044342,9.49128246307373,0.0,0.0,0.0,0.0,0.0,0.0,0.0,0.0,0.0
1646243401.1926153,7844,1646243401,191616255,,0.0,0.0,0.0,0.0,0.0,0.0,0.0,0.0,0.0,0.0,0.0,0.0,0.0,0.04227856546640396,-0.021807242184877396,-0.01407345850020647,0.0,0.0,0.0,0.0,0.0,0.0,0.0,0.0,0.0,0.21717949211597443,0.1148717999458313,9.771282196044922,0.0,0.0,0.0,0.0,0.0,0.0,0.0,0.0,0.0
1646243401.194316,7845,1646243401,193922041,,0.0,0.0,0.0,0.0,0.0,0.0,0.0,0.0,0.0,0.0,0.0,0.0,0.0,0.02097327448427677,-0.0015672193840146065,-0.0034208132419735193,0.0,0.0,0.0,0.0,0.0,0.0,0.0,0.0,0.0,0.2853846251964569,-0.26025640964508057,9.719230651855469,0.0,0.0,0.0,0.0,0.0,0.0,0.0,0.0,0.0
1646243401.1965625,7846,1646243401,196193802,,0.0,0.0,0.0,0.0,0.0,0.0,0.0,0.0,0.0,0.0,0.0,0.0,0.0,0.041213300079107285,0.009085424244403839,-0.015138722956180573,0.0,0.0,0.0,0.0,0.0,0.0,0.0,0.0,0.0,-0.08615384995937347,0.3410256505012512,9.983077049255371,0.0,0.0,0.0,0.0,0.0,0.0,0.0,0.0,0.0
1646243401.1988502,7847,1646243401,198423909,,0.0,0.0,0.0,0.0,0.0,0.0,0.0,0.0,0.0,0.0,0.0,0.0,0.0,0.0497354120016098,0.01654227450489998,0.01255815289914608,0.0,0.0,0.0,0.0,0.0,0.0,0.0,0.0,0.0,-0.01974359154701233,-0.19564102590084076,10.006409645080566,0.0,0.0,0.0,0.0,0.0,0.0,0.0,0.0,0.0
1646243401.2008932,7848,1646243401,200635972,,0.0,0.0,0.0,0.0,0.0,0.0,0.0,0.0,0.0,0.0,0.0,0.0,0.0,0.05186593905091286,-0.0047630127519369125,-0.0417703278362751,0.0,0.0,0.0,0.0,0.0,0.0,0.0,0.0,0.0,0.3446153998374939,0.25487178564071655,9.886154174804688,0.0,0.0,0.0,0.0,0.0,0.0,0.0,0.0,0.0
1646243401.2032342,7849,1646243401,202844266,,0.0,0.0,0.0,0.0,0.0,0.0,0.0,0.0,0.0,0.0,0.0,0.0,0.0,0.03695223852992058,-0.0005019548698328435,-0.024726100265979767,0.0,0.0,0.0,0.0,0.0,0.0,0.0,0.0,0.0,0.4451282024383545,0.14538460969924927,9.634871482849121,0.0,0.0,0.0,0.0,0.0,0.0,0.0,0.0,0.0
1646243401.2055058,7850,1646243401,205081918,,0.0,0.0,0.0,0.0,0.0,0.0,0.0,0.0,0.0,0.0,0.0,0.0,0.0,0.03482171148061752,0.006954895332455635,0.008297095075249672,0.0,0.0,0.0,0.0,0.0,0.0,0.0,0.0,0.0,0.3912820518016815,-0.2674359083175659,9.284872055053711,0.0,0.0,0.0,0.0,0.0,0.0,0.0,0.0,0.0
1646243401.208698,7851,1646243401,207288925,,0.0,0.0,0.0,0.0,0.0,0.0,0.0,0.0,0.0,0.0,0.0,0.0,0.0,0.0358869731426239,-0.006893542595207691,-0.02685662917792797,0.0,0.0,0.0,0.0,0.0,0.0,0.0,0.0,0.0,0.2620512843132019,0.3176923394203186,10.04230785369873,0.0,0.0,0.0,0.0,0.0,0.0,0.0,0.0,0.0
1646243401.2099078,7852,1646243401,209510100,,0.0,0.0,0.0,0.0,0.0,0.0,0.0,0.0,0.0,0.0,0.0,0.0,0.0,0.00925536546856165,0.009085424244403839,0.0008402442326769233,0.0,0.0,0.0,0.0,0.0,0.0,0.0,0.0,0.0,-0.08076923340559006,-0.10051282495260239,10.117691993713379,0.0,0.0,0.0,0.0,0.0,0.0,0.0,0.0,0.0
1646243401.2121384,7853,1646243401,211719507,,0.0,0.0,0.0,0.0,0.0,0.0,0.0,0.0,0.0,0.0,0.0,0.0,0.0,0.0007332512177526951,0.006954895332455635,0.024276060983538628,0.0,0.0,0.0,0.0,0.0,0.0,0.0,0.0,0.0,0.2764102518558502,0.2117948830127716,9.69948673248291,0.0,0.0,0.0,0.0,0.0,0.0,0.0,0.0,0.0
1646243401.2142596,7854,1646243401,213943310,,0.0,0.0,0.0,0.0,0.0,0.0,0.0,0.0,0.0,0.0,0.0,0.0,0.0,0.02949538826942444,0.009085424244403839,-0.01087766420096159,0.0,0.0,0.0,0.0,0.0,0.0,0.0,0.0,0.0,0.15256410837173462,-0.3410256505012512,9.527179718017578,0.0,0.0,0.0,0.0,0.0,0.0,0.0,0.0,0.0
1646243401.216652,7855,1646243401,216247150,,0.0,0.0,0.0,0.0,0.0,0.0,0.0,0.0,0.0,0.0,0.0,0.0,0.0,0.015646953135728836,0.00588963134214282,0.005101301707327366,0.0,0.0,0.0,0.0,0.0,0.0,0.0,0.0,0.0,0.4325641095638275,0.24230769276618958,9.412307739257812,0.0,0.0,0.0,0.0,0.0,0.0,0.0,0.0,0.0
1646243401.2188072,7856,1646243401,218474947,,0.0,0.0,0.0,0.0,0.0,0.0,0.0,0.0,0.0,0.0,0.0,0.0,0.0,0.023103805258870125,-0.006893542595207691,0.002970772795379162,0.0,0.0,0.0,0.0,0.0,0.0,0.0,0.0,0.0,0.3212820589542389,-0.21000000834465027,9.65999984741211,0.0,0.0,0.0,0.0,0.0,0.0,0.0,0.0,0.0
1646243401.22126,7857,1646243401,220770140,,0.0,0.0,0.0,0.0,0.0,0.0,0.0,0.0,0.0,0.0,0.0,0.0,0.0,0.008190101943910122,0.01441174652427435,-0.01087766420096159,0.0,0.0,0.0,0.0,0.0,0.0,0.0,0.0,0.0,0.24589744210243225,0.2297435998916626,9.760512351989746,0.0,0.0,0.0,0.0,0.0,0.0,0.0,0.0,0.0
1646243401.2233713,7858,1646243401,222989329,,0.0,0.0,0.0,0.0,0.0,0.0,0.0,0.0,0.0,0.0,0.0,0.0,0.0,0.0220385380089283,-0.005828278139233589,-0.013008194044232368,0.0,0.0,0.0,0.0,0.0,0.0,0.0,0.0,0.0,-0.3176923394203186,0.4002564251422882,10.117691993713379,0.0,0.0,0.0,0.0,0.0,0.0,0.0,0.0,0.0
1646243401.2257397,7859,1646243401,225178355,,0.0,0.0,0.0,0.0,0.0,0.0,0.0,0.0,0.0,0.0,0.0,0.0,0.0,0.0103206317871809,0.010150688700377941,0.018949739634990692,0.0,0.0,0.0,0.0,0.0,0.0,0.0,0.0,0.0,0.28717949986457825,-0.2800000011920929,9.218461990356445,0.0,0.0,0.0,0.0,0.0,0.0,0.0,0.0,0.0
1646243401.2278006,7860,1646243401,227379973,,0.0,0.0,0.0,0.0,0.0,0.0,0.0,0.0,0.0,0.0,0.0,0.0,0.0,0.05080067738890648,0.0037591024301946163,-0.0162039864808321,0.0,0.0,0.0,0.0,0.0,0.0,0.0,0.0,0.0,0.007179487496614456,0.2620512843132019,10.004615783691406,0.0,0.0,0.0,0.0,0.0,0.0,0.0,0.0,0.0
1646243401.2303004,7861,1646243401,229591769,,0.0,0.0,0.0,0.0,0.0,0.0,0.0,0.0,0.0,0.0,0.0,0.0,0.0,0.0103206317871809,0.00588963134214282,0.02747185342013836,0.0,0.0,0.0,0.0,0.0,0.0,0.0,0.0,0.0,-0.22615385055541992,0.11128205060958862,9.925641059875488,0.0,0.0,0.0,0.0,0.0,0.0,0.0,0.0,0.0
1646243401.232108,7862,1646243401,231817887,,0.0,0.0,0.0,0.0,0.0,0.0,0.0,0.0,0.0,0.0,0.0,0.0,0.0,0.012451158836483955,-0.0005019548698328435,0.005101301707327366,0.0,0.0,0.0,0.0,0.0,0.0,0.0,0.0,0.0,-0.2943589687347412,0.2889743745326996,10.250513076782227,0.0,0.0,0.0,0.0,0.0,0.0,0.0,0.0,0.0
1646243401.2343547,7863,1646243401,234085100,,0.0,0.0,0.0,0.0,0.0,0.0,0.0,0.0,0.0,0.0,0.0,0.0,0.0,0.00925536546856165,0.0005633095279335976,0.006166566163301468,0.0,0.0,0.0,0.0,0.0,0.0,0.0,0.0,0.0,-0.12025640904903412,0.09333333373069763,9.651025772094727,0.0,0.0,0.0,0.0,0.0,0.0,0.0,0.0,0.0
1646243401.2368402,7864,1646243401,236270891,,0.0,0.0,0.0,0.0,0.0,0.0,0.0,0.0,0.0,0.0,0.0,0.0,0.0,0.023103805258870125,0.0026938372757285833,0.004036037251353264,0.0,0.0,0.0,0.0,0.0,0.0,0.0,0.0,0.0,0.23153845965862274,0.10051282495260239,9.338717460632324,0.0,0.0,0.0,0.0,0.0,0.0,0.0,0.0,0.0
1646243401.2390325,7865,1646243401,238492928,,0.0,0.0,0.0,0.0,0.0,0.0,0.0,0.0,0.0,0.0,0.0,0.0,0.0,0.003929044120013714,0.028260184451937675,0.013623417355120182,0.0,0.0,0.0,0.0,0.0,0.0,0.0,0.0,0.0,0.20102564990520477,-0.05025641247630119,9.173589706420898,0.0,0.0,0.0,0.0,0.0,0.0,0.0,0.0,0.0
1646243401.2412233,7866,1646243401,240757437,,0.0,0.0,0.0,0.0,0.0,0.0,0.0,0.0,0.0,0.0,0.0,0.0,0.0,0.03375644609332085,-0.006893542595207691,-0.01087766420096159,0.0,0.0,0.0,0.0,0.0,0.0,0.0,0.0,0.0,0.19205129146575928,-0.1794871836900711,9.24179458618164,0.0,0.0,0.0,0.0,0.0,0.0,0.0,0.0,0.0
1646243401.2434037,7867,1646243401,242997575,,0.0,0.0,0.0,0.0,0.0,0.0,0.0,0.0,0.0,0.0,0.0,0.0,0.0,-0.0003320134710520506,0.03358650580048561,0.021080268546938896,0.0,0.0,0.0,0.0,0.0,0.0,0.0,0.0,0.0,-0.2207692414522171,0.3805128335952759,10.128461837768555,0.0,0.0,0.0,0.0,0.0,0.0,0.0,0.0,0.0
1646243401.2455938,7868,1646243401,245243583,,0.0,0.0,0.0,0.0,0.0,0.0,0.0,0.0,0.0,0.0,0.0,0.0,0.0,-0.0024625419173389673,-0.007958807051181793,0.0019055086886510253,0.0,0.0,0.0,0.0,0.0,0.0,0.0,0.0,0.0,-0.42538464069366455,0.12923076748847961,10.00820541381836,0.0,0.0,0.0,0.0,0.0,0.0,0.0,0.0,0.0
1646243401.247832,7869,1646243401,247462707,,0.0,0.0,0.0,0.0,0.0,0.0,0.0,0.0,0.0,0.0,0.0,0.0,0.0,0.004994308575987816,0.035717036575078964,-0.013008194044232368,0.0,0.0,0.0,0.0,0.0,0.0,0.0,0.0,0.0,0.003589743748307228,0.3141025900840759,9.697691917419434,0.0,0.0,0.0,0.0,0.0,0.0,0.0,0.0,0.0
1646243401.2513351,7870,1646243401,249747450,,0.0,0.0,0.0,0.0,0.0,0.0,0.0,0.0,0.0,0.0,0.0,0.0,0.0,-0.004593071062117815,-0.013285127468407154,0.032798174768686295,0.0,0.0,0.0,0.0,0.0,0.0,0.0,0.0,0.0,-0.21000000834465027,-0.01794871874153614,9.803589820861816,0.0,0.0,0.0,0.0,0.0,0.0,0.0,0.0,0.0
1646243401.2531166,7871,1646243401,252030922,,0.0,0.0,0.0,0.0,0.0,0.0,0.0,0.0,0.0,0.0,0.0,0.0,0.0,0.00712483748793602,0.02612965553998947,0.03492870554327965,0.0,0.0,0.0,0.0,0.0,0.0,0.0,0.0,0.0,0.14538460969924927,0.12205128371715546,9.293846130371094,0.0,0.0,0.0,0.0,0.0,0.0,0.0,0.0,0.0
1646243401.2550578,7872,1646243401,254245648,,0.0,0.0,0.0,0.0,0.0,0.0,0.0,0.0,0.0,0.0,0.0,0.0,0.0,-0.016310978680849075,0.004824366886168718,0.0008402442326769233,0.0,0.0,0.0,0.0,0.0,0.0,0.0,0.0,0.0,-0.22256410121917725,0.4792307913303375,9.830512046813965,0.0,0.0,0.0,0.0,0.0,0.0,0.0,0.0,0.0
1646243401.2567964,7873,1646243401,256454676,,0.0,0.0,0.0,0.0,0.0,0.0,0.0,0.0,0.0,0.0,0.0,0.0,0.0,0.0220385380089283,0.031455978751182556,0.005101301707327366,0.0,0.0,0.0,0.0,0.0,0.0,0.0,0.0,0.0,0.003589743748307228,-0.05743589997291565,9.523589134216309,0.0,0.0,0.0,0.0,0.0,0.0,0.0,0.0,0.0
1646243401.259096,7874,1646243401,258703421,,0.0,0.0,0.0,0.0,0.0,0.0,0.0,0.0,0.0,0.0,0.0,0.0,0.0,-0.008854128420352936,-0.0015672193840146065,0.002970772795379162,0.0,0.0,0.0,0.0,0.0,0.0,0.0,0.0,0.0,0.14358974993228912,0.19384616613388062,9.281281471252441,0.0,0.0,0.0,0.0,0.0,0.0,0.0,0.0,0.0
1646243401.2613385,7875,1646243401,260913040,,0.0,0.0,0.0,0.0,0.0,0.0,0.0,0.0,0.0,0.0,0.0,0.0,0.0,-0.019506771117448807,0.0026938372757285833,0.018949739634990692,0.0,0.0,0.0,0.0,0.0,0.0,0.0,0.0,0.0,0.33743590116500854,-0.1058974415063858,9.225641250610352,0.0,0.0,0.0,0.0,0.0,0.0,0.0,0.0,0.0
1646243401.263554,7876,1646243401,263137008,,0.0,0.0,0.0,0.0,0.0,0.0,0.0,0.0,0.0,0.0,0.0,0.0,0.0,-0.0067235990427434444,-0.0005019548698328435,0.009362359531223774,0.0,0.0,0.0,0.0,0.0,0.0,0.0,0.0,0.0,-0.10230769217014313,0.6820513010025024,9.695897102355957,0.0,0.0,0.0,0.0,0.0,0.0,0.0,0.0,0.0
1646243401.2655387,7877,1646243401,265294914,,0.0,0.0,0.0,0.0,0.0,0.0,0.0,0.0,0.0,0.0,0.0,0.0,0.0,-0.004593071062117815,-0.009024071507155895,0.011492888443171978,0.0,0.0,0.0,0.0,0.0,0.0,0.0,0.0,0.0,-0.3302564322948456,0.15435898303985596,9.956153869628906,0.0,0.0,0.0,0.0,0.0,0.0,0.0,0.0,0.0
1646243401.267814,7878,1646243401,267522591,,0.0,0.0,0.0,0.0,0.0,0.0,0.0,0.0,0.0,0.0,0.0,0.0,0.0,-0.019506771117448807,0.012281217612326145,0.02640658989548683,0.0,0.0,0.0,0.0,0.0,0.0,0.0,0.0,0.0,-0.2530769407749176,0.6748718023300171,10.110512733459473,0.0,0.0,0.0,0.0,0.0,0.0,0.0,0.0,0.0
1646243401.270134,7879,1646243401,269747198,,0.0,0.0,0.0,0.0,0.0,0.0,0.0,0.0,0.0,0.0,0.0,0.0,0.0,-0.0035278063733130693,-0.014350391924381256,0.006166566163301468,0.0,0.0,0.0,0.0,0.0,0.0,0.0,0.0,0.0,-0.09153846651315689,0.3392307758331299,9.936410903930664,0.0,0.0,0.0,0.0,0.0,0.0,0.0,0.0,0.0
1646243401.272188,7880,1646243401,271897187,,0.0,0.0,0.0,0.0,0.0,0.0,0.0,0.0,0.0,0.0,0.0,0.0,0.0,-0.02163730002939701,0.01973806880414486,0.04132029414176941,0.0,0.0,0.0,0.0,0.0,0.0,0.0,0.0,0.0,0.01794871874153614,-0.08794872462749481,9.44820499420166,0.0,0.0,0.0,0.0,0.0,0.0,0.0,0.0,0.0
1646243401.2742016,7881,1646243401,274037338,,0.0,0.0,0.0,0.0,0.0,0.0,0.0,0.0,0.0,0.0,0.0,0.0,0.0,-0.02909415028989315,-0.007958807051181793,0.010427623987197876,0.0,0.0,0.0,0.0,0.0,0.0,0.0,0.0,0.0,0.11128205060958862,0.3141025900840759,9.40333366394043,0.0,0.0,0.0,0.0,0.0,0.0,0.0,0.0,0.0
1646243401.2763917,7882,1646243401,276174374,,0.0,0.0,0.0,0.0,0.0,0.0,0.0,0.0,0.0,0.0,0.0,0.0,0.0,-0.02589835785329342,0.01654227450489998,0.01255815289914608,0.0,0.0,0.0,0.0,0.0,0.0,0.0,0.0,0.0,-0.24589744210243225,0.026923077180981636,9.85564136505127,0.0,0.0,0.0,0.0,0.0,0.0,0.0,0.0,0.0
1646243401.278443,7883,1646243401,278298813,,0.0,0.0,0.0,0.0,0.0,0.0,0.0,0.0,0.0,0.0,0.0,0.0,0.0,-0.019506771117448807,0.0005633095279335976,0.014688681811094284,0.0,0.0,0.0,0.0,0.0,0.0,0.0,0.0,0.0,0.16333334147930145,0.26384615898132324,9.701282501220703,0.0,0.0,0.0,0.0,0.0,0.0,0.0,0.0,0.0
1646243401.2805839,7884,1646243401,280422097,,0.0,0.0,0.0,0.0,0.0,0.0,0.0,0.0,0.0,0.0,0.0,0.0,0.0,-0.034420475363731384,-0.0047630127519369125,0.02001500315964222,0.0,0.0,0.0,0.0,0.0,0.0,0.0,0.0,0.0,0.09333333373069763,-0.03948718309402466,9.455384254455566,0.0,0.0,0.0,0.0,0.0,0.0,0.0,0.0,0.0
1646243401.2826946,7885,1646243401,282533595,,0.0,0.0,0.0,0.0,0.0,0.0,0.0,0.0,0.0,0.0,0.0,0.0,0.0,-0.02163730002939701,0.008020159788429737,0.01255815289914608,0.0,0.0,0.0,0.0,0.0,0.0,0.0,0.0,0.0,-0.24051281809806824,0.41102564334869385,10.324103355407715,0.0,0.0,0.0,0.0,0.0,0.0,0.0,0.0,0.0
1646243401.2847853,7886,1646243401,284636669,,0.0,0.0,0.0,0.0,0.0,0.0,0.0,0.0,0.0,0.0,0.0,0.0,0.0,-0.02909415028989315,-0.017546184360980988,0.022145532071590424,0.0,0.0,0.0,0.0,0.0,0.0,0.0,0.0,0.0,-0.3266666829586029,0.19025641679763794,10.268461227416992,0.0,0.0,0.0,0.0,0.0,0.0,0.0,0.0,0.0
1646243401.2869499,7887,1646243401,286772904,,0.0,0.0,0.0,0.0,0.0,0.0,0.0,0.0,0.0,0.0,0.0,0.0,0.0,-0.041877321898937225,0.011215953156352043,0.01575394533574581,0.0,0.0,0.0,0.0,0.0,0.0,0.0,0.0,0.0,-0.32307693362236023,0.32487180829048157,10.322307586669922,0.0,0.0,0.0,0.0,0.0,0.0,0.0,0.0,0.0
1646243401.2894306,7888,1646243401,288889334,,0.0,0.0,0.0,0.0,0.0,0.0,0.0,0.0,0.0,0.0,0.0,0.0,0.0,-0.01844150573015213,-0.015415656380355358,-0.013008194044232368,0.0,0.0,0.0,0.0,0.0,0.0,0.0,0.0,0.0,-0.0735897421836853,0.11128205060958862,9.920256614685059,0.0,0.0,0.0,0.0,0.0,0.0,0.0,0.0,0.0
1646243401.2910752,7889,1646243401,290987828,,0.0,0.0,0.0,0.0,0.0,0.0,0.0,0.0,0.0,0.0,0.0,0.0,0.0,-0.017376242205500603,-0.021807242184877396,0.04025502875447273,0.0,0.0,0.0,0.0,0.0,0.0,0.0,0.0,0.0,0.10230769217014313,0.3589743673801422,9.484102249145508,0.0,0.0,0.0,0.0,0.0,0.0,0.0,0.0,0.0
1646243401.2932262,7890,1646243401,293095475,,0.0,0.0,0.0,0.0,0.0,0.0,0.0,0.0,0.0,0.0,0.0,0.0,0.0,-0.04081205651164055,-0.009024071507155895,0.0008402442326769233,0.0,0.0,0.0,0.0,0.0,0.0,0.0,0.0,0.0,0.05205128341913223,-0.03589743748307228,9.64923095703125,0.0,0.0,0.0,0.0,0.0,0.0,0.0,0.0,0.0
1646243401.2953746,7891,1646243401,295195619,,0.0,0.0,0.0,0.0,0.0,0.0,0.0,0.0,0.0,0.0,0.0,0.0,0.0,-0.037616267800331116,-0.014350391924381256,0.02001500315964222,0.0,0.0,0.0,0.0,0.0,0.0,0.0,0.0,0.0,-0.032307691872119904,-0.08615384995937347,9.787436485290527,0.0,0.0,0.0,0.0,0.0,0.0,0.0,0.0,0.0
1646243401.2975252,7892,1646243401,297324996,,0.0,0.0,0.0,0.0,0.0,0.0,0.0,0.0,0.0,0.0,0.0,0.0,0.0,-0.0013972773449495435,0.012281217612326145,-0.015138722956180573,0.0,0.0,0.0,0.0,0.0,0.0,0.0,0.0,0.0,0.2656410336494446,-0.023333333432674408,9.340513229370117,0.0,0.0,0.0,0.0,0.0,0.0,0.0,0.0,0.0
1646243401.299563,7893,1646243401,299473118,,0.0,0.0,0.0,0.0,0.0,0.0,0.0,0.0,0.0,0.0,0.0,0.0,0.0,-0.03335520997643471,-0.012219863012433052,0.024276060983538628,0.0,0.0,0.0,0.0,0.0,0.0,0.0,0.0,0.0,0.12923076748847961,-0.001794871874153614,9.95435905456543,0.0,0.0,0.0,0.0,0.0,0.0,0.0,0.0,0.0
1646243401.3020434,7894,1646243401,301653317,,0.0,0.0,0.0,0.0,0.0,0.0,0.0,0.0,0.0,0.0,0.0,0.0,0.0,-0.034420475363731384,-0.02393777295947075,0.0008402442326769233,0.0,0.0,0.0,0.0,0.0,0.0,0.0,0.0,0.0,-0.22615385055541992,0.31589746475219727,10.083589553833008,0.0,0.0,0.0,0.0,0.0,0.0,0.0,0.0,0.0
1646243401.3043652,7895,1646243401,303961810,,0.0,0.0,0.0,0.0,0.0,0.0,0.0,0.0,0.0,0.0,0.0,0.0,0.0,-0.022702563554048538,0.01441174652427435,0.008297095075249672,0.0,0.0,0.0,0.0,0.0,0.0,0.0,0.0,0.0,-0.18666666746139526,0.028717949986457825,10.372564315795898,0.0,0.0,0.0,0.0,0.0,0.0,0.0,0.0,0.0
1646243401.3065584,7896,1646243401,306163876,,0.0,0.0,0.0,0.0,0.0,0.0,0.0,0.0,0.0,0.0,0.0,0.0,0.0,-0.023767828941345215,-0.018611449748277664,-0.021530307829380035,0.0,0.0,0.0,0.0,0.0,0.0,0.0,0.0,0.0,-0.10051282495260239,0.44333335757255554,10.029743194580078,0.0,0.0,0.0,0.0,0.0,0.0,0.0,0.0,0.0
1646243401.308959,7897,1646243401,308388504,,0.0,0.0,0.0,0.0,0.0,0.0,0.0,0.0,0.0,0.0,0.0,0.0,0.0,-0.023767828941345215,-0.013285127468407154,-0.004486078396439552,0.0,0.0,0.0,0.0,0.0,0.0,0.0,0.0,0.0,0.3805128335952759,-0.21717949211597443,9.514616012573242,0.0,0.0,0.0,0.0,0.0,0.0,0.0,0.0,0.0
1646243401.3110359,7898,1646243401,310631823,,0.0,0.0,0.0,0.0,0.0,0.0,0.0,0.0,0.0,0.0,0.0,0.0,0.0,-0.05146470293402672,0.013346482068300247,0.010427623987197876,0.0,0.0,0.0,0.0,0.0,0.0,0.0,0.0,0.0,0.21897436678409576,0.19025641679763794,9.828718185424805,0.0,0.0,0.0,0.0,0.0,0.0,0.0,0.0,0.0
1646243401.3132794,7899,1646243401,312833506,,0.0,0.0,0.0,0.0,0.0,0.0,0.0,0.0,0.0,0.0,0.0,0.0,0.0,-0.034420475363731384,-0.009024071507155895,-0.02046504244208336,0.0,0.0,0.0,0.0,0.0,0.0,0.0,0.0,0.0,0.22615385055541992,0.14179487526416779,9.661794662475586,0.0,0.0,0.0,0.0,0.0,0.0,0.0,0.0,0.0
1646243401.3154712,7900,1646243401,315057080,,0.0,0.0,0.0,0.0,0.0,0.0,0.0,0.0,0.0,0.0,0.0,0.0,0.0,-0.023767828941345215,0.0037591024301946163,0.006166566163301468,0.0,0.0,0.0,0.0,0.0,0.0,0.0,0.0,0.0,-0.19205129146575928,-0.06282051652669907,10.05307674407959,0.0,0.0,0.0,0.0,0.0,0.0,0.0,0.0,0.0
1646243401.318382,7901,1646243401,317266576,,0.0,0.0,0.0,0.0,0.0,0.0,0.0,0.0,0.0,0.0,0.0,0.0,0.0,-0.0035278063733130693,-0.01967671327292919,-0.028987158089876175,0.0,0.0,0.0,0.0,0.0,0.0,0.0,0.0,0.0,-0.09871795028448105,0.39307692646980286,10.178717613220215,0.0,0.0,0.0,0.0,0.0,0.0,0.0,0.0,0.0
1646243401.320524,7902,1646243401,320117483,,0.0,0.0,0.0,0.0,0.0,0.0,0.0,0.0,0.0,0.0,0.0,0.0,0.0,-0.020572034642100334,-0.03139462321996689,0.006166566163301468,0.0,0.0,0.0,0.0,0.0,0.0,0.0,0.0,0.0,0.06820512562990189,-0.0735897421836853,9.923846244812012,0.0,0.0,0.0,0.0,0.0,0.0,0.0,0.0,0.0
1646243401.3228498,7903,1646243401,322354145,,0.0,0.0,0.0,0.0,0.0,0.0,0.0,0.0,0.0,0.0,0.0,0.0,0.0,-0.04081205651164055,-0.0026324838399887085,-0.004486078396439552,0.0,0.0,0.0,0.0,0.0,0.0,0.0,0.0,0.0,0.1794871836900711,0.3141025900840759,9.785640716552734,0.0,0.0,0.0,0.0,0.0,0.0,0.0,0.0,0.0
1646243401.3250775,7904,1646243401,324591995,,0.0,0.0,0.0,0.0,0.0,0.0,0.0,0.0,0.0,0.0,0.0,0.0,0.0,-0.013115186244249344,0.0005633095279335976,0.008297095075249672,0.0,0.0,0.0,0.0,0.0,0.0,0.0,0.0,0.0,-0.1705128252506256,0.10051282495260239,10.029743194580078,0.0,0.0,0.0,0.0,0.0,0.0,0.0,0.0,0.0
1646243401.327079,7905,1646243401,326797500,,0.0,0.0,0.0,0.0,0.0,0.0,0.0,0.0,0.0,0.0,0.0,0.0,0.0,-0.030159417539834976,0.0037591024301946163,-0.004486078396439552,0.0,0.0,0.0,0.0,0.0,0.0,0.0,0.0,0.0,0.4882051348686218,-0.3715384900569916,9.344101905822754,0.0,0.0,0.0,0.0,0.0,0.0,0.0,0.0,0.0
1646243401.330317,7906,1646243401,329055059,,0.0,0.0,0.0,0.0,0.0,0.0,0.0,0.0,0.0,0.0,0.0,0.0,0.0,-0.013115186244249344,-0.01967671327292919,-0.0034208132419735193,0.0,0.0,0.0,0.0,0.0,0.0,0.0,0.0,0.0,0.012564103119075298,0.1741025745868683,9.913077354431152,0.0,0.0,0.0,0.0,0.0,0.0,0.0,0.0,0.0
1646243401.3315504,7907,1646243401,331280233,,0.0,0.0,0.0,0.0,0.0,0.0,0.0,0.0,0.0,0.0,0.0,0.0,0.0,-0.01844150573015213,-0.014350391924381256,-0.013008194044232368,0.0,0.0,0.0,0.0,0.0,0.0,0.0,0.0,0.0,0.31948718428611755,-0.3141025900840759,9.342308044433594,0.0,0.0,0.0,0.0,0.0,0.0,0.0,0.0,0.0
1646243401.333906,7908,1646243401,333565505,,0.0,0.0,0.0,0.0,0.0,0.0,0.0,0.0,0.0,0.0,0.0,0.0,0.0,0.004994308575987816,-0.02287250943481922,-0.013008194044232368,0.0,0.0,0.0,0.0,0.0,0.0,0.0,0.0,0.0,0.34282052516937256,-0.12564103305339813,9.638461112976074,0.0,0.0,0.0,0.0,0.0,0.0,0.0,0.0,0.0
1646243401.3360891,7909,1646243401,335773697,,0.0,0.0,0.0,0.0,0.0,0.0,0.0,0.0,0.0,0.0,0.0,0.0,0.0,-0.012049921788275242,-0.014350391924381256,-0.025791365653276443,0.0,0.0,0.0,0.0,0.0,0.0,0.0,0.0,0.0,0.2943589687347412,-0.12025640904903412,9.40333366394043,0.0,0.0,0.0,0.0,0.0,0.0,0.0,0.0,0.0
1646243401.3384173,7910,1646243401,338038559,,0.0,0.0,0.0,0.0,0.0,0.0,0.0,0.0,0.0,0.0,0.0,0.0,0.0,-0.026963621377944946,-0.01648092083632946,0.011492888443171978,0.0,0.0,0.0,0.0,0.0,0.0,0.0,0.0,0.0,0.08615384995937347,0.00897435937076807,9.925641059875488,0.0,0.0,0.0,0.0,0.0,0.0,0.0,0.0,0.0
1646243401.3407373,7911,1646243401,340304253,,0.0,0.0,0.0,0.0,0.0,0.0,0.0,0.0,0.0,0.0,0.0,0.0,0.0,0.00925536546856165,-0.0036977482959628105,-0.02685662917792797,0.0,0.0,0.0,0.0,0.0,0.0,0.0,0.0,0.0,-0.08435897529125214,0.11128205060958862,10.09615421295166,0.0,0.0,0.0,0.0,0.0,0.0,0.0,0.0,0.0
1646243401.3429048,7912,1646243401,342534854,,0.0,0.0,0.0,0.0,0.0,0.0,0.0,0.0,0.0,0.0,0.0,0.0,0.0,-0.008854128420352936,0.0016285729361698031,0.01681920886039734,0.0,0.0,0.0,0.0,0.0,0.0,0.0,0.0,0.0,0.3212820589542389,0.005384615622460842,9.703076362609863,0.0,0.0,0.0,0.0,0.0,0.0,0.0,0.0,0.0
1646243401.3451786,7913,1646243401,344769490,,0.0,0.0,0.0,0.0,0.0,0.0,0.0,0.0,0.0,0.0,0.0,0.0,0.0,0.001798515673726797,0.0005633095279335976,0.01681920886039734,0.0,0.0,0.0,0.0,0.0,0.0,0.0,0.0,0.0,0.2674359083175659,-0.028717949986457825,9.74256420135498,0.0,0.0,0.0,0.0,0.0,0.0,0.0,0.0,0.0
1646243401.3473368,7914,1646243401,346973700,,0.0,0.0,0.0,0.0,0.0,0.0,0.0,0.0,0.0,0.0,0.0,0.0,0.0,-0.013115186244249344,0.0026938372757285833,-0.008747135289013386,0.0,0.0,0.0,0.0,0.0,0.0,0.0,0.0,0.0,0.3769230842590332,-0.42538464069366455,9.301025390625,0.0,0.0,0.0,0.0,0.0,0.0,0.0,0.0,0.0
1646243401.3496692,7915,1646243401,349198889,,0.0,0.0,0.0,0.0,0.0,0.0,0.0,0.0,0.0,0.0,0.0,0.0,0.0,-0.009919392876327038,-0.025003038346767426,-0.013008194044232368,0.0,0.0,0.0,0.0,0.0,0.0,0.0,0.0,0.0,0.15076923370361328,-0.007179487496614456,9.877179145812988,0.0,0.0,0.0,0.0,0.0,0.0,0.0,0.0,0.0
1646243401.3519464,7916,1646243401,351505738,,0.0,0.0,0.0,0.0,0.0,0.0,0.0,0.0,0.0,0.0,0.0,0.0,0.0,0.0028637798968702555,-0.0026324838399887085,-0.01087766420096159,0.0,0.0,0.0,0.0,0.0,0.0,0.0,0.0,0.0,-0.16153846681118011,-0.09692308306694031,10.045896530151367,0.0,0.0,0.0,0.0,0.0,0.0,0.0,0.0,0.0
1646243401.3543458,7917,1646243401,353824921,,0.0,0.0,0.0,0.0,0.0,0.0,0.0,0.0,0.0,0.0,0.0,0.0,0.0,-0.0035278063733130693,0.0037591024301946163,0.024276060983538628,0.0,0.0,0.0,0.0,0.0,0.0,0.0,0.0,0.0,-0.08974359184503555,-0.03948718309402466,9.984871864318848,0.0,0.0,0.0,0.0,0.0,0.0,0.0,0.0,0.0
1646243401.3564386,7918,1646243401,356042582,,0.0,0.0,0.0,0.0,0.0,0.0,0.0,0.0,0.0,0.0,0.0,0.0,0.0,-0.004593071062117815,0.0037591024301946163,-0.01087766420096159,0.0,0.0,0.0,0.0,0.0,0.0,0.0,0.0,0.0,0.0735897421836853,0.001794871874153614,9.692307472229004,0.0,0.0,0.0,0.0,0.0,0.0,0.0,0.0,0.0
1646243401.3586786,7919,1646243401,358302673,,0.0,0.0,0.0,0.0,0.0,0.0,0.0,0.0,0.0,0.0,0.0,0.0,0.0,-0.0067235990427434444,0.0005633095279335976,0.005101301707327366,0.0,0.0,0.0,0.0,0.0,0.0,0.0,0.0,0.0,0.44333335757255554,-0.16333334147930145,9.539743423461914,0.0,0.0,0.0,0.0,0.0,0.0,0.0,0.0,0.0
1646243401.3609083,7920,1646243401,360517530,,0.0,0.0,0.0,0.0,0.0,0.0,0.0,0.0,0.0,0.0,0.0,0.0,0.0,-0.0024625419173389673,0.004824366886168718,0.009362359531223774,0.0,0.0,0.0,0.0,0.0,0.0,0.0,0.0,0.0,-0.16692309081554413,0.04307692497968674,10.144615173339844,0.0,0.0,0.0,0.0,0.0,0.0,0.0,0.0,0.0
1646243401.3636155,7921,1646243401,362742904,,0.0,0.0,0.0,0.0,0.0,0.0,0.0,0.0,0.0,0.0,0.0,0.0,0.0,-0.0035278063733130693,0.01973806880414486,-0.008747135289013386,0.0,0.0,0.0,0.0,0.0,0.0,0.0,0.0,0.0,-0.005384615622460842,-0.3320513069629669,9.706666946411133,0.0,0.0,0.0,0.0,0.0,0.0,0.0,0.0,0.0
1646243401.3654013,7922,1646243401,365018315,,0.0,0.0,0.0,0.0,0.0,0.0,0.0,0.0,0.0,0.0,0.0,0.0,0.0,-0.004593071062117815,0.00588963134214282,-0.0034208132419735193,0.0,0.0,0.0,0.0,0.0,0.0,0.0,0.0,0.0,0.1148717999458313,0.1561538577079773,9.64923095703125,0.0,0.0,0.0,0.0,0.0,0.0,0.0,0.0,0.0
1646243401.3676922,7923,1646243401,367217098,,0.0,0.0,0.0,0.0,0.0,0.0,0.0,0.0,0.0,0.0,0.0,0.0,0.0,0.018842745572328568,0.0005633095279335976,-0.008747135289013386,0.0,0.0,0.0,0.0,0.0,0.0,0.0,0.0,0.0,0.48461538553237915,-0.4271794855594635,9.150256156921387,0.0,0.0,0.0,0.0,0.0,0.0,0.0,0.0,0.0
1646243401.3712437,7924,1646243401,369498021,,0.0,0.0,0.0,0.0,0.0,0.0,0.0,0.0,0.0,0.0,0.0,0.0,0.0,-0.005658335518091917,0.025064390152692795,0.018949739634990692,0.0,0.0,0.0,0.0,0.0,0.0,0.0,0.0,0.0,0.14897435903549194,0.14179487526416779,9.498461723327637,0.0,0.0,0.0,0.0,0.0,0.0,0.0,0.0,0.0
1646243401.3722196,7925,1646243401,371755521,,0.0,0.0,0.0,0.0,0.0,0.0,0.0,0.0,0.0,0.0,0.0,0.0,0.0,0.008190101943910122,0.03039071336388588,-0.0162039864808321,0.0,0.0,0.0,0.0,0.0,0.0,0.0,0.0,0.0,0.20820513367652893,-0.17589744925498962,9.807180404663086,0.0,0.0,0.0,0.0,0.0,0.0,0.0,0.0,0.0
1646243401.3743875,7926,1646243401,373962668,,0.0,0.0,0.0,0.0,0.0,0.0,0.0,0.0,0.0,0.0,0.0,0.0,0.0,0.0007332512177526951,0.006954895332455635,0.01575394533574581,0.0,0.0,0.0,0.0,0.0,0.0,0.0,0.0,0.0,-0.2710256576538086,-0.17230769991874695,10.038718223571777,0.0,0.0,0.0,0.0,0.0,0.0,0.0,0.0,0.0
1646243401.3766437,7927,1646243401,376249185,,0.0,0.0,0.0,0.0,0.0,0.0,0.0,0.0,0.0,0.0,0.0,0.0,0.0,0.023103805258870125,-0.02393777295947075,-0.00022502047067973763,0.0,0.0,0.0,0.0,0.0,0.0,0.0,0.0,0.0,-0.25487178564071655,0.13641025125980377,10.205641746520996,0.0,0.0,0.0,0.0,0.0,0.0,0.0,0.0,0.0
1646243401.3789017,7928,1646243401,378489359,,0.0,0.0,0.0,0.0,0.0,0.0,0.0,0.0,0.0,0.0,0.0,0.0,0.0,0.0007332512177526951,0.02293386124074459,0.009362359531223774,0.0,0.0,0.0,0.0,0.0,0.0,0.0,0.0,0.0,0.17230769991874695,-0.3823077082633972,9.575640678405762,0.0,0.0,0.0,0.0,0.0,0.0,0.0,0.0,0.0
1646243401.3811438,7929,1646243401,380724912,,0.0,0.0,0.0,0.0,0.0,0.0,0.0,0.0,0.0,0.0,0.0,0.0,0.0,0.013516423292458057,-0.0026324838399887085,0.002970772795379162,0.0,0.0,0.0,0.0,0.0,0.0,0.0,0.0,0.0,0.26025640964508057,-0.25128206610679626,9.419486999511719,0.0,0.0,0.0,0.0,0.0,0.0,0.0,0.0,0.0
1646243401.3834305,7930,1646243401,382996075,,0.0,0.0,0.0,0.0,0.0,0.0,0.0,0.0,0.0,0.0,0.0,0.0,0.0,0.023103805258870125,0.0016285729361698031,0.024276060983538628,0.0,0.0,0.0,0.0,0.0,0.0,0.0,0.0,0.0,0.19923077523708344,-0.012564103119075298,9.59000015258789,0.0,0.0,0.0,0.0,0.0,0.0,0.0,0.0,0.0
1646243401.3856184,7931,1646243401,385201781,,0.0,0.0,0.0,0.0,0.0,0.0,0.0,0.0,0.0,0.0,0.0,0.0,0.0,-0.0024625419173389673,0.009085424244403839,-0.013008194044232368,0.0,0.0,0.0,0.0,0.0,0.0,0.0,0.0,0.0,0.2566666603088379,-0.3356410562992096,9.428462028503418,0.0,0.0,0.0,0.0,0.0,0.0,0.0,0.0,0.0
1646243401.387871,7932,1646243401,387442689,,0.0,0.0,0.0,0.0,0.0,0.0,0.0,0.0,0.0,0.0,0.0,0.0,0.0,0.03162591904401779,0.01973806880414486,0.008297095075249672,0.0,0.0,0.0,0.0,0.0,0.0,0.0,0.0,0.0,-0.04307692497968674,-0.10769230872392654,10.05307674407959,0.0,0.0,0.0,0.0,0.0,0.0,0.0,0.0,0.0
1646243401.3900697,7933,1646243401,389643945,,0.0,0.0,0.0,0.0,0.0,0.0,0.0,0.0,0.0,0.0,0.0,0.0,0.0,0.003929044120013714,0.0016285729361698031,-0.0034208132419735193,0.0,0.0,0.0,0.0,0.0,0.0,0.0,0.0,0.0,-0.32487180829048157,-0.22794872522354126,10.171539306640625,0.0,0.0,0.0,0.0,0.0,0.0,0.0,0.0,0.0
1646243401.3922446,7934,1646243401,391857347,,0.0,0.0,0.0,0.0,0.0,0.0,0.0,0.0,0.0,0.0,0.0,0.0,0.0,0.026299597695469856,0.00588963134214282,0.017884474247694016,0.0,0.0,0.0,0.0,0.0,0.0,0.0,0.0,0.0,-0.28179487586021423,0.10948718339204788,10.340256690979004,0.0,0.0,0.0,0.0,0.0,0.0,0.0,0.0,0.0
1646243401.3943775,7935,1646243401,394057505,,0.0,0.0,0.0,0.0,0.0,0.0,0.0,0.0,0.0,0.0,0.0,0.0,0.0,0.02523433417081833,0.013346482068300247,-0.015138722956180573,0.0,0.0,0.0,0.0,0.0,0.0,0.0,0.0,0.0,-0.1651282161474228,-0.1471794843673706,9.843076705932617,0.0,0.0,0.0,0.0,0.0,0.0,0.0,0.0,0.0
1646243401.3966584,7936,1646243401,396310385,,0.0,0.0,0.0,0.0,0.0,0.0,0.0,0.0,0.0,0.0,0.0,0.0,0.0,0.019908009096980095,0.0037591024301946163,0.013623417355120182,0.0,0.0,0.0,0.0,0.0,0.0,0.0,0.0,0.0,0.28717949986457825,-0.010769231244921684,9.498461723327637,0.0,0.0,0.0,0.0,0.0,0.0,0.0,0.0,0.0
1646243401.3992136,7937,1646243401,398855475,,0.0,0.0,0.0,0.0,0.0,0.0,0.0,0.0,0.0,0.0,0.0,0.0,0.0,0.02523433417081833,0.00588963134214282,-0.030052425339818,0.0,0.0,0.0,0.0,0.0,0.0,0.0,0.0,0.0,0.2441025674343109,-0.01974359154701233,9.593589782714844,0.0,0.0,0.0,0.0,0.0,0.0,0.0,0.0,0.0
1646243401.4014566,7938,1646243401,401122340,,0.0,0.0,0.0,0.0,0.0,0.0,0.0,0.0,0.0,0.0,0.0,0.0,0.0,0.03908276557922363,-0.012219863012433052,0.006166566163301468,0.0,0.0,0.0,0.0,0.0,0.0,0.0,0.0,0.0,0.0412820540368557,-0.2207692414522171,9.685128211975098,0.0,0.0,0.0,0.0,0.0,0.0,0.0,0.0,0.0
1646243401.4038107,7939,1646243401,403358203,,0.0,0.0,0.0,0.0,0.0,0.0,0.0,0.0,0.0,0.0,0.0,0.0,0.0,0.027364861220121384,0.009085424244403839,0.00723183061927557,0.0,0.0,0.0,0.0,0.0,0.0,0.0,0.0,0.0,-0.2207692414522171,0.14000000059604645,10.211026191711426,0.0,0.0,0.0,0.0,0.0,0.0,0.0,0.0,0.0
1646243401.406178,7940,1646243401,405650262,,0.0,0.0,0.0,0.0,0.0,0.0,0.0,0.0,0.0,0.0,0.0,0.0,0.0,0.04653962329030037,-0.0047630127519369125,-0.004486078396439552,0.0,0.0,0.0,0.0,0.0,0.0,0.0,0.0,0.0,0.2925640940666199,-0.3912820518016815,9.410512924194336,0.0,0.0,0.0,0.0,0.0,0.0,0.0,0.0,0.0
1646243401.4081256,7941,1646243401,407856747,,0.0,0.0,0.0,0.0,0.0,0.0,0.0,0.0,0.0,0.0,0.0,0.0,0.0,0.03375644609332085,-0.014350391924381256,0.009362359531223774,0.0,0.0,0.0,0.0,0.0,0.0,0.0,0.0,0.0,-0.32487180829048157,0.10769230872392654,10.306154251098633,0.0,0.0,0.0,0.0,0.0,0.0,0.0,0.0,0.0
1646243401.4103763,7942,1646243401,410098801,,0.0,0.0,0.0,0.0,0.0,0.0,0.0,0.0,0.0,0.0,0.0,0.0,0.0,0.05506173521280289,0.0037591024301946163,-0.015138722956180573,0.0,0.0,0.0,0.0,0.0,0.0,0.0,0.0,0.0,-0.05564102530479431,0.005384615622460842,9.697691917419434,0.0,0.0,0.0,0.0,0.0,0.0,0.0,0.0,0.0
1646243401.4134343,7943,1646243401,412323285,,0.0,0.0,0.0,0.0,0.0,0.0,0.0,0.0,0.0,0.0,0.0,0.0,0.0,0.0103206317871809,0.009085424244403839,0.028537116944789886,0.0,0.0,0.0,0.0,0.0,0.0,0.0,0.0,0.0,-0.2943589687347412,0.005384615622460842,10.205641746520996,0.0,0.0,0.0,0.0,0.0,0.0,0.0,0.0,0.0
1646243401.4149249,7944,1646243401,414566656,,0.0,0.0,0.0,0.0,0.0,0.0,0.0,0.0,0.0,0.0,0.0,0.0,0.0,0.05186593905091286,0.0026938372757285833,-0.01087766420096159,0.0,0.0,0.0,0.0,0.0,0.0,0.0,0.0,0.0,-0.22615385055541992,0.19205129146575928,10.272051811218262,0.0,0.0,0.0,0.0,0.0,0.0,0.0,0.0,0.0
1646243401.4171035,7945,1646243401,416752459,,0.0,0.0,0.0,0.0,0.0,0.0,0.0,0.0,0.0,0.0,0.0,0.0,0.0,0.014581688679754734,0.012281217612326145,0.006166566163301468,0.0,0.0,0.0,0.0,0.0,0.0,0.0,0.0,0.0,0.1471794843673706,-0.2800000011920929,9.719230651855469,0.0,0.0,0.0,0.0,0.0,0.0,0.0,0.0,0.0
1646243401.4193122,7946,1646243401,419019359,,0.0,0.0,0.0,0.0,0.0,0.0,0.0,0.0,0.0,0.0,0.0,0.0,0.0,0.02523433417081833,0.0005633095279335976,0.011492888443171978,0.0,0.0,0.0,0.0,0.0,0.0,0.0,0.0,0.0,0.1382051259279251,0.23153845965862274,9.586410522460938,0.0,0.0,0.0,0.0,0.0,0.0,0.0,0.0,0.0
1646243401.4217763,7947,1646243401,421253025,,0.0,0.0,0.0,0.0,0.0,0.0,0.0,0.0,0.0,0.0,0.0,0.0,0.0,0.016712216660380363,-0.010089334100484848,-0.013008194044232368,0.0,0.0,0.0,0.0,0.0,0.0,0.0,0.0,0.0,0.2800000011920929,-0.2476923167705536,9.351282119750977,0.0,0.0,0.0,0.0,0.0,0.0,0.0,0.0,0.0
1646243401.423861,7948,1646243401,423467912,,0.0,0.0,0.0,0.0,0.0,0.0,0.0,0.0,0.0,0.0,0.0,0.0,0.0,0.04227856546640396,0.017607539892196655,0.017884474247694016,0.0,0.0,0.0,0.0,0.0,0.0,0.0,0.0,0.0,0.01794871874153614,0.4128205180168152,9.9884614944458,0.0,0.0,0.0,0.0,0.0,0.0,0.0,0.0,0.0
1646243401.4261072,7949,1646243401,425730933,,0.0,0.0,0.0,0.0,0.0,0.0,0.0,0.0,0.0,0.0,0.0,0.0,0.0,0.03269118070602417,0.0026938372757285833,0.002970772795379162,0.0,0.0,0.0,0.0,0.0,0.0,0.0,0.0,0.0,-0.31051284074783325,-0.18487180769443512,10.167948722839355,0.0,0.0,0.0,0.0,0.0,0.0,0.0,0.0,0.0
1646243401.428439,7950,1646243401,427951676,,0.0,0.0,0.0,0.0,0.0,0.0,0.0,0.0,0.0,0.0,0.0,0.0,0.0,0.026299597695469856,0.006954895332455635,-0.022595571354031563,0.0,0.0,0.0,0.0,0.0,0.0,0.0,0.0,0.0,-0.2925640940666199,0.007179487496614456,10.255897521972656,0.0,0.0,0.0,0.0,0.0,0.0,0.0,0.0,0.0
1646243401.4306781,7951,1646243401,430203352,,0.0,0.0,0.0,0.0,0.0,0.0,0.0,0.0,0.0,0.0,0.0,0.0,0.0,0.03269118070602417,0.0037591024301946163,-0.02046504244208336,0.0,0.0,0.0,0.0,0.0,0.0,0.0,0.0,0.0,-0.044871795922517776,0.14538460969924927,10.171539306640625,0.0,0.0,0.0,0.0,0.0,0.0,0.0,0.0,0.0
1646243401.4328742,7952,1646243401,432449070,,0.0,0.0,0.0,0.0,0.0,0.0,0.0,0.0,0.0,0.0,0.0,0.0,0.0,0.03375644609332085,-0.020741978660225868,0.03173290938138962,0.0,0.0,0.0,0.0,0.0,0.0,0.0,0.0,0.0,0.2297435998916626,-0.2925640940666199,9.568461418151855,0.0,0.0,0.0,0.0,0.0,0.0,0.0,0.0,0.0
1646243401.4353151,7953,1646243401,434671278,,0.0,0.0,0.0,0.0,0.0,0.0,0.0,0.0,0.0,0.0,0.0,0.0,0.0,0.024169068783521652,0.00588963134214282,-0.011942928656935692,0.0,0.0,0.0,0.0,0.0,0.0,0.0,0.0,0.0,-0.22256410121917725,0.3320513069629669,10.424615859985352,0.0,0.0,0.0,0.0,0.0,0.0,0.0,0.0,0.0
1646243401.4372482,7954,1646243401,436894295,,0.0,0.0,0.0,0.0,0.0,0.0,0.0,0.0,0.0,0.0,0.0,0.0,0.0,0.04653962329030037,-0.01115459855645895,-0.018334513530135155,0.0,0.0,0.0,0.0,0.0,0.0,0.0,0.0,0.0,0.2979487180709839,-0.24589744210243225,9.494871139526367,0.0,0.0,0.0,0.0,0.0,0.0,0.0,0.0,0.0
1646243401.4395518,7955,1646243401,439102608,,0.0,0.0,0.0,0.0,0.0,0.0,0.0,0.0,0.0,0.0,0.0,0.0,0.0,0.030560653656721115,0.006954895332455635,-0.00022502047067973763,0.0,0.0,0.0,0.0,0.0,0.0,0.0,0.0,0.0,-0.1328205168247223,0.4002564251422882,9.9094877243042,0.0,0.0,0.0,0.0,0.0,0.0,0.0,0.0,0.0
1646243401.4416366,7956,1646243401,441358629,,0.0,0.0,0.0,0.0,0.0,0.0,0.0,0.0,0.0,0.0,0.0,0.0,0.0,0.02949538826942444,0.0005633095279335976,-0.018334513530135155,0.0,0.0,0.0,0.0,0.0,0.0,0.0,0.0,0.0,0.18666666746139526,-0.010769231244921684,9.475128173828125,0.0,0.0,0.0,0.0,0.0,0.0,0.0,0.0,0.0
1646243401.4438205,7957,1646243401,443524801,,0.0,0.0,0.0,0.0,0.0,0.0,0.0,0.0,0.0,0.0,0.0,0.0,0.0,0.024169068783521652,-0.005828278139233589,0.008297095075249672,0.0,0.0,0.0,0.0,0.0,0.0,0.0,0.0,0.0,0.30512821674346924,-0.14538460969924927,9.733589172363281,0.0,0.0,0.0,0.0,0.0,0.0,0.0,0.0,0.0
1646243401.4461803,7958,1646243401,445799412,,0.0,0.0,0.0,0.0,0.0,0.0,0.0,0.0,0.0,0.0,0.0,0.0,0.0,0.04547435790300369,-0.005828278139233589,-0.02685662917792797,0.0,0.0,0.0,0.0,0.0,0.0,0.0,0.0,0.0,0.28358975052833557,0.16153846681118011,9.598974227905273,0.0,0.0,0.0,0.0,0.0,0.0,0.0,0.0,0.0
1646243401.448394,7959,1646243401,448026202,,0.0,0.0,0.0,0.0,0.0,0.0,0.0,0.0,0.0,0.0,0.0,0.0,0.0,0.03162591904401779,0.004824366886168718,0.005101301707327366,0.0,0.0,0.0,0.0,0.0,0.0,0.0,0.0,0.0,0.016153845936059952,-0.048461541533470154,10.0853853225708,0.0,0.0,0.0,0.0,0.0,0.0,0.0,0.0,0.0
1646243401.450531,7960,1646243401,450230841,,0.0,0.0,0.0,0.0,0.0,0.0,0.0,0.0,0.0,0.0,0.0,0.0,0.0,0.03695223852992058,-0.02393777295947075,-0.022595571354031563,0.0,0.0,0.0,0.0,0.0,0.0,0.0,0.0,0.0,-0.16153846681118011,0.3733333349227905,10.345641136169434,0.0,0.0,0.0,0.0,0.0,0.0,0.0,0.0,0.0
1646243401.4529185,7961,1646243401,452459362,,0.0,0.0,0.0,0.0,0.0,0.0,0.0,0.0,0.0,0.0,0.0,0.0,0.0,0.02523433417081833,-0.005828278139233589,-0.004486078396439552,0.0,0.0,0.0,0.0,0.0,0.0,0.0,0.0,0.0,0.1238461583852768,-0.13641025125980377,9.837692260742188,0.0,0.0,0.0,0.0,0.0,0.0,0.0,0.0,0.0
1646243401.455974,7962,1646243401,454682121,,0.0,0.0,0.0,0.0,0.0,0.0,0.0,0.0,0.0,0.0,0.0,0.0,0.0,0.026299597695469856,-0.006893542595207691,-0.017269250005483627,0.0,0.0,0.0,0.0,0.0,0.0,0.0,0.0,0.0,0.4217948913574219,-0.05025641247630119,9.704872131347656,0.0,0.0,0.0,0.0,0.0,0.0,0.0,0.0,0.0
1646243401.4572294,7963,1646243401,456894548,,0.0,0.0,0.0,0.0,0.0,0.0,0.0,0.0,0.0,0.0,0.0,0.0,0.0,0.03482171148061752,-0.009024071507155895,-0.005551342852413654,0.0,0.0,0.0,0.0,0.0,0.0,0.0,0.0,0.0,0.3858974575996399,0.06102564185857773,9.559487342834473,0.0,0.0,0.0,0.0,0.0,0.0,0.0,0.0,0.0
1646243401.459506,7964,1646243401,459114550,,0.0,0.0,0.0,0.0,0.0,0.0,0.0,0.0,0.0,0.0,0.0,0.0,0.0,0.013516423292458057,-0.0005019548698328435,0.0232107974588871,0.0,0.0,0.0,0.0,0.0,0.0,0.0,0.0,0.0,0.14000000059604645,-0.2153846174478531,9.56128215789795,0.0,0.0,0.0,0.0,0.0,0.0,0.0,0.0,0.0
1646243401.4617784,7965,1646243401,461375497,,0.0,0.0,0.0,0.0,0.0,0.0,0.0,0.0,0.0,0.0,0.0,0.0,0.0,0.030560653656721115,-0.009024071507155895,-0.028987158089876175,0.0,0.0,0.0,0.0,0.0,0.0,0.0,0.0,0.0,-0.15435898303985596,0.1238461583852768,9.9884614944458,0.0,0.0,0.0,0.0,0.0,0.0,0.0,0.0,0.0
1646243401.463905,7966,1646243401,463605320,,0.0,0.0,0.0,0.0,0.0,0.0,0.0,0.0,0.0,0.0,0.0,0.0,0.0,0.03482171148061752,0.015477010980248451,-0.0012902843300253153,0.0,0.0,0.0,0.0,0.0,0.0,0.0,0.0,0.0,0.4505128264427185,-0.34282052516937256,9.318974494934082,0.0,0.0,0.0,0.0,0.0,0.0,0.0,0.0,0.0
1646243401.4661443,7967,1646243401,465795648,,0.0,0.0,0.0,0.0,0.0,0.0,0.0,0.0,0.0,0.0,0.0,0.0,0.0,0.024169068783521652,-0.0015672193840146065,-0.0162039864808321,0.0,0.0,0.0,0.0,0.0,0.0,0.0,0.0,0.0,-0.2207692414522171,0.49000000953674316,10.162564277648926,0.0,0.0,0.0,0.0,0.0,0.0,0.0,0.0,0.0
1646243401.4683442,7968,1646243401,467964863,,0.0,0.0,0.0,0.0,0.0,0.0,0.0,0.0,0.0,0.0,0.0,0.0,0.0,0.016712216660380363,-0.02713356725871563,-0.0076818703673779964,0.0,0.0,0.0,0.0,0.0,0.0,0.0,0.0,0.0,0.21897436678409576,-0.20102564990520477,9.401537895202637,0.0,0.0,0.0,0.0,0.0,0.0,0.0,0.0,0.0
1646243401.470634,7969,1646243401,470214493,,0.0,0.0,0.0,0.0,0.0,0.0,0.0,0.0,0.0,0.0,0.0,0.0,0.0,0.02949538826942444,0.0037591024301946163,-0.013008194044232368,0.0,0.0,0.0,0.0,0.0,0.0,0.0,0.0,0.0,-0.032307691872119904,0.4002564251422882,9.862820625305176,0.0,0.0,0.0,0.0,0.0,0.0,0.0,0.0,0.0
1646243401.472749,7970,1646243401,472431600,,0.0,0.0,0.0,0.0,0.0,0.0,0.0,0.0,0.0,0.0,0.0,0.0,0.0,0.03269118070602417,-0.01648092083632946,-0.008747135289013386,0.0,0.0,0.0,0.0,0.0,0.0,0.0,0.0,0.0,-0.14538460969924927,-0.03589743748307228,9.830512046813965,0.0,0.0,0.0,0.0,0.0,0.0,0.0,0.0,0.0
1646243401.4750128,7971,1646243401,474691914,,0.0,0.0,0.0,0.0,0.0,0.0,0.0,0.0,0.0,0.0,0.0,0.0,0.0,-0.024833092465996742,-0.0005019548698328435,-0.017269250005483627,0.0,0.0,0.0,0.0,0.0,0.0,0.0,0.0,0.0,0.21897436678409576,0.34282052516937256,9.340513229370117,0.0,0.0,0.0,0.0,0.0,0.0,0.0,0.0,0.0
1646243401.4772553,7972,1646243401,476909244,,0.0,0.0,0.0,0.0,0.0,0.0,0.0,0.0,0.0,0.0,0.0,0.0,0.0,0.0103206317871809,-0.005828278139233589,-0.018334513530135155,0.0,0.0,0.0,0.0,0.0,0.0,0.0,0.0,0.0,0.16871795058250427,0.22794872522354126,9.670769691467285,0.0,0.0,0.0,0.0,0.0,0.0,0.0,0.0,0.0
1646243401.4794655,7973,1646243401,479128188,,0.0,0.0,0.0,0.0,0.0,0.0,0.0,0.0,0.0,0.0,0.0,0.0,0.0,0.003929044120013714,0.029325447976589203,-0.005551342852413654,0.0,0.0,0.0,0.0,0.0,0.0,0.0,0.0,0.0,0.2028205245733261,-0.19384616613388062,8.834359169006348,0.0,0.0,0.0,0.0,0.0,0.0,0.0,0.0,0.0
1646243401.4817188,7974,1646243401,481470473,,0.0,0.0,0.0,0.0,0.0,0.0,0.0,0.0,0.0,0.0,0.0,0.0,0.0,0.012451158836483955,-0.009024071507155895,-0.0162039864808321,0.0,0.0,0.0,0.0,0.0,0.0,0.0,0.0,0.0,-0.023333333432674408,0.3356410562992096,9.791025161743164,0.0,0.0,0.0,0.0,0.0,0.0,0.0,0.0,0.0
1646243401.4841998,7975,1646243401,483795884,,0.0,0.0,0.0,0.0,0.0,0.0,0.0,0.0,0.0,0.0,0.0,0.0,0.0,0.006059573031961918,-0.013285127468407154,-0.004486078396439552,0.0,0.0,0.0,0.0,0.0,0.0,0.0,0.0,0.0,0.03589743748307228,0.16333334147930145,9.270512580871582,0.0,0.0,0.0,0.0,0.0,0.0,0.0,0.0,0.0
1646243401.4864256,7976,1646243401,486016127,,0.0,0.0,0.0,0.0,0.0,0.0,0.0,0.0,0.0,0.0,0.0,0.0,0.0,0.011385894380509853,-0.006893542595207691,-0.01939977891743183,0.0,0.0,0.0,0.0,0.0,0.0,0.0,0.0,0.0,-0.27820512652397156,0.47025641798973083,9.819743156433105,0.0,0.0,0.0,0.0,0.0,0.0,0.0,0.0,0.0
1646243401.4885745,7977,1646243401,488233514,,0.0,0.0,0.0,0.0,0.0,0.0,0.0,0.0,0.0,0.0,0.0,0.0,0.0,0.01777748018503189,0.010150688700377941,-0.005551342852413654,0.0,0.0,0.0,0.0,0.0,0.0,0.0,0.0,0.0,-0.007179487496614456,0.14897435903549194,9.572051048278809,0.0,0.0,0.0,0.0,0.0,0.0,0.0,0.0,0.0
1646243401.4907303,7978,1646243401,490435184,,0.0,0.0,0.0,0.0,0.0,0.0,0.0,0.0,0.0,0.0,0.0,0.0,0.0,0.00925536546856165,0.004824366886168718,-0.00022502047067973763,0.0,0.0,0.0,0.0,0.0,0.0,0.0,0.0,0.0,0.2764102518558502,0.42000001668930054,9.071281433105469,0.0,0.0,0.0,0.0,0.0,0.0,0.0,0.0,0.0
1646243401.4933696,7979,1646243401,492773379,,0.0,0.0,0.0,0.0,0.0,0.0,0.0,0.0,0.0,0.0,0.0,0.0,0.0,-0.0035278063733130693,0.004824366886168718,0.005101301707327366,0.0,0.0,0.0,0.0,0.0,0.0,0.0,0.0,0.0,0.2943589687347412,-0.11307692527770996,8.830769538879395,0.0,0.0,0.0,0.0,0.0,0.0,0.0,0.0,0.0
1646243401.4970286,7980,1646243401,495762997,,0.0,0.0,0.0,0.0,0.0,0.0,0.0,0.0,0.0,0.0,0.0,0.0,0.0,0.02097327448427677,0.010150688700377941,-0.00022502047067973763,0.0,0.0,0.0,0.0,0.0,0.0,0.0,0.0,0.0,0.26025640964508057,0.28717949986457825,9.20230770111084,0.0,0.0,0.0,0.0,0.0,0.0,0.0,0.0,0.0
1646243401.4991543,7981,1646243401,498006303,,0.0,0.0,0.0,0.0,0.0,0.0,0.0,0.0,0.0,0.0,0.0,0.0,0.0,0.024169068783521652,0.006954895332455635,0.002970772795379162,0.0,0.0,0.0,0.0,0.0,0.0,0.0,0.0,0.0,0.22435897588729858,0.01974359154701233,9.205897331237793,0.0,0.0,0.0,0.0,0.0,0.0,0.0,0.0,0.0
1646243401.5005486,7982,1646243401,500221251,,0.0,0.0,0.0,0.0,0.0,0.0,0.0,0.0,0.0,0.0,0.0,0.0,0.0,0.00712483748793602,-0.01648092083632946,0.005101301707327366,0.0,0.0,0.0,0.0,0.0,0.0,0.0,0.0,0.0,-0.12923076748847961,0.3733333349227905,9.65461540222168,0.0,0.0,0.0,0.0,0.0,0.0,0.0,0.0,0.0
1646243401.5027637,7983,1646243401,502414851,,0.0,0.0,0.0,0.0,0.0,0.0,0.0,0.0,0.0,0.0,0.0,0.0,0.0,-0.008854128420352936,0.008020159788429737,0.0232107974588871,0.0,0.0,0.0,0.0,0.0,0.0,0.0,0.0,0.0,-0.28358975052833557,0.4325641095638275,10.024358749389648,0.0,0.0,0.0,0.0,0.0,0.0,0.0,0.0,0.0
1646243401.5051882,7984,1646243401,504821409,,0.0,0.0,0.0,0.0,0.0,0.0,0.0,0.0,0.0,0.0,0.0,0.0,0.0,0.0028637798968702555,0.021868597716093063,-0.0034208132419735193,0.0,0.0,0.0,0.0,0.0,0.0,0.0,0.0,0.0,0.11666666716337204,0.3643589913845062,9.554102897644043,0.0,0.0,0.0,0.0,0.0,0.0,0.0,0.0,0.0
1646243401.507352,7985,1646243401,507040579,,0.0,0.0,0.0,0.0,0.0,0.0,0.0,0.0,0.0,0.0,0.0,0.0,0.0,-0.0013972773449495435,0.008020159788429737,0.004036037251353264,0.0,0.0,0.0,0.0,0.0,0.0,0.0,0.0,0.0,0.09692308306694031,0.10769230872392654,9.674358367919922,0.0,0.0,0.0,0.0,0.0,0.0,0.0,0.0,0.0
1646243401.5096464,7986,1646243401,509249219,,0.0,0.0,0.0,0.0,0.0,0.0,0.0,0.0,0.0,0.0,0.0,0.0,0.0,0.0103206317871809,0.010150688700377941,-0.009812399744987488,0.0,0.0,0.0,0.0,0.0,0.0,0.0,0.0,0.0,0.2566666603088379,0.3123077154159546,9.638461112976074,0.0,0.0,0.0,0.0,0.0,0.0,0.0,0.0,0.0
1646243401.5119224,7987,1646243401,511475322,,0.0,0.0,0.0,0.0,0.0,0.0,0.0,0.0,0.0,0.0,0.0,0.0,0.0,-0.03655100241303444,0.00588963134214282,0.01575394533574581,0.0,0.0,0.0,0.0,0.0,0.0,0.0,0.0,0.0,-0.28179487586021423,0.07538461685180664,9.871794700622559,0.0,0.0,0.0,0.0,0.0,0.0,0.0,0.0,0.0
1646243401.5140603,7988,1646243401,513741196,,0.0,0.0,0.0,0.0,0.0,0.0,0.0,0.0,0.0,0.0,0.0,0.0,0.0,-0.019506771117448807,0.012281217612326145,0.0019055086886510253,0.0,0.0,0.0,0.0,0.0,0.0,0.0,0.0,0.0,0.001794871874153614,0.6766666769981384,9.622307777404785,0.0,0.0,0.0,0.0,0.0,0.0,0.0,0.0,0.0
1646243401.5163386,7989,1646243401,515955942,,0.0,0.0,0.0,0.0,0.0,0.0,0.0,0.0,0.0,0.0,0.0,0.0,0.0,-0.009919392876327038,0.0005633095279335976,-0.02366083674132824,0.0,0.0,0.0,0.0,0.0,0.0,0.0,0.0,0.0,-0.01794871874153614,0.31051284074783325,9.950769424438477,0.0,0.0,0.0,0.0,0.0,0.0,0.0,0.0,0.0
1646243401.5186007,7990,1646243401,518163751,,0.0,0.0,0.0,0.0,0.0,0.0,0.0,0.0,0.0,0.0,0.0,0.0,0.0,-0.0013972773449495435,-0.0047630127519369125,0.005101301707327366,0.0,0.0,0.0,0.0,0.0,0.0,0.0,0.0,0.0,0.28179487586021423,-0.05923077091574669,9.432050704956055,0.0,0.0,0.0,0.0,0.0,0.0,0.0,0.0,0.0
1646243401.521073,7991,1646243401,520505215,,0.0,0.0,0.0,0.0,0.0,0.0,0.0,0.0,0.0,0.0,0.0,0.0,0.0,-0.023767828941345215,0.013346482068300247,-0.013008194044232368,0.0,0.0,0.0,0.0,0.0,0.0,0.0,0.0,0.0,0.003589743748307228,0.39666667580604553,9.934615135192871,0.0,0.0,0.0,0.0,0.0,0.0,0.0,0.0,0.0
1646243401.5232193,7992,1646243401,522884854,,0.0,0.0,0.0,0.0,0.0,0.0,0.0,0.0,0.0,0.0,0.0,0.0,0.0,0.00712483748793602,-0.01648092083632946,-0.009812399744987488,0.0,0.0,0.0,0.0,0.0,0.0,0.0,0.0,0.0,-0.012564103119075298,0.1238461583852768,9.913077354431152,0.0,0.0,0.0,0.0,0.0,0.0,0.0,0.0,0.0
1646243401.525458,7993,1646243401,525094228,,0.0,0.0,0.0,0.0,0.0,0.0,0.0,0.0,0.0,0.0,0.0,0.0,0.0,-0.037616267800331116,0.015477010980248451,0.017884474247694016,0.0,0.0,0.0,0.0,0.0,0.0,0.0,0.0,0.0,-0.3589743673801422,0.7000000476837158,10.282820701599121,0.0,0.0,0.0,0.0,0.0,0.0,0.0,0.0,0.0
1646243401.5275328,7994,1646243401,527313067,,0.0,0.0,0.0,0.0,0.0,0.0,0.0,0.0,0.0,0.0,0.0,0.0,0.0,-0.03548574075102806,0.008020159788429737,0.002970772795379162,0.0,0.0,0.0,0.0,0.0,0.0,0.0,0.0,0.0,-0.14897435903549194,0.1058974415063858,10.185897827148438,0.0,0.0,0.0,0.0,0.0,0.0,0.0,0.0,0.0
1646243401.5297732,7995,1646243401,529511743,,0.0,0.0,0.0,0.0,0.0,0.0,0.0,0.0,0.0,0.0,0.0,0.0,0.0,-0.023767828941345215,0.0026938372757285833,0.02640658989548683,0.0,0.0,0.0,0.0,0.0,0.0,0.0,0.0,0.0,0.10051282495260239,0.5097435712814331,9.758718490600586,0.0,0.0,0.0,0.0,0.0,0.0,0.0,0.0,0.0
1646243401.5321305,7996,1646243401,531697161,,0.0,0.0,0.0,0.0,0.0,0.0,0.0,0.0,0.0,0.0,0.0,0.0,0.0,-0.008854128420352936,-0.01648092083632946,-0.018334513530135155,0.0,0.0,0.0,0.0,0.0,0.0,0.0,0.0,0.0,0.2476923167705536,-0.2064102590084076,9.374615669250488,0.0,0.0,0.0,0.0,0.0,0.0,0.0,0.0,0.0
1646243401.534287,7997,1646243401,533903634,,0.0,0.0,0.0,0.0,0.0,0.0,0.0,0.0,0.0,0.0,0.0,0.0,0.0,-0.04613837972283363,-0.021807242184877396,0.0232107974588871,0.0,0.0,0.0,0.0,0.0,0.0,0.0,0.0,0.0,0.05564102530479431,-0.14897435903549194,9.61153793334961,0.0,0.0,0.0,0.0,0.0,0.0,0.0,0.0,0.0
1646243401.5367672,7998,1646243401,536185419,,0.0,0.0,0.0,0.0,0.0,0.0,0.0,0.0,0.0,0.0,0.0,0.0,0.0,-0.014180450700223446,-0.0015672193840146065,-0.01087766420096159,0.0,0.0,0.0,0.0,0.0,0.0,0.0,0.0,0.0,-0.13102564215660095,0.41641026735305786,10.315128326416016,0.0,0.0,0.0,0.0,0.0,0.0,0.0,0.0,0.0
1646243401.539026,7999,1646243401,538425658,,0.0,0.0,0.0,0.0,0.0,0.0,0.0,0.0,0.0,0.0,0.0,0.0,0.0,-0.017376242205500603,0.01654227450489998,0.00723183061927557,0.0,0.0,0.0,0.0,0.0,0.0,0.0,0.0,0.0,-0.3858974575996399,0.13641025125980377,10.483846664428711,0.0,0.0,0.0,0.0,0.0,0.0,0.0,0.0,0.0
1646243401.5431225,8000,1646243401,540696145,,0.0,0.0,0.0,0.0,0.0,0.0,0.0,0.0,0.0,0.0,0.0,0.0,0.0,-0.034420475363731384,0.01441174652427435,0.009362359531223774,0.0,0.0,0.0,0.0,0.0,0.0,0.0,0.0,0.0,0.2064102590084076,0.2620512843132019,9.771282196044922,0.0,0.0,0.0,0.0,0.0,0.0,0.0,0.0,0.0
1646243401.5433187,8001,1646243401,542929887,,0.0,0.0,0.0,0.0,0.0,0.0,0.0,0.0,0.0,0.0,0.0,0.0,0.0,-0.034420475363731384,0.0005633095279335976,-0.030052425339818,0.0,0.0,0.0,0.0,0.0,0.0,0.0,0.0,0.0,-0.005384615622460842,0.05025641247630119,10.117691993713379,0.0,0.0,0.0,0.0,0.0,0.0,0.0,0.0,0.0
1646243401.5453134,8002,1646243401,545125705,,0.0,0.0,0.0,0.0,0.0,0.0,0.0,0.0,0.0,0.0,0.0,0.0,0.0,-0.0429425872862339,-0.009024071507155895,0.01575394533574581,0.0,0.0,0.0,0.0,0.0,0.0,0.0,0.0,0.0,-0.05384615436196327,-0.06282051652669907,10.124872207641602,0.0,0.0,0.0,0.0,0.0,0.0,0.0,0.0,0.0
1646243401.5477984,8003,1646243401,547461616,,0.0,0.0,0.0,0.0,0.0,0.0,0.0,0.0,0.0,0.0,0.0,0.0,0.0,-0.020572034642100334,-0.009024071507155895,-0.009812399744987488,0.0,0.0,0.0,0.0,0.0,0.0,0.0,0.0,0.0,-0.3356410562992096,0.4235897660255432,10.501794815063477,0.0,0.0,0.0,0.0,0.0,0.0,0.0,0.0,0.0
1646243401.5503113,8004,1646243401,549750356,,0.0,0.0,0.0,0.0,0.0,0.0,0.0,0.0,0.0,0.0,0.0,0.0,0.0,-0.05892155319452286,-0.01967671327292919,0.0008402442326769233,0.0,0.0,0.0,0.0,0.0,0.0,0.0,0.0,0.0,0.1148717999458313,-0.025128206238150597,9.64384651184082,0.0,0.0,0.0,0.0,0.0,0.0,0.0,0.0,0.0
1646243401.5523026,8005,1646243401,552011334,,0.0,0.0,0.0,0.0,0.0,0.0,0.0,0.0,0.0,0.0,0.0,0.0,0.0,-0.04826890677213669,0.010150688700377941,0.014688681811094284,0.0,0.0,0.0,0.0,0.0,0.0,0.0,0.0,0.0,0.10230769217014313,0.36076924204826355,10.045896530151367,0.0,0.0,0.0,0.0,0.0,0.0,0.0,0.0,0.0
1646243401.5545366,8006,1646243401,554241832,,0.0,0.0,0.0,0.0,0.0,0.0,0.0,0.0,0.0,0.0,0.0,0.0,0.0,-0.02909415028989315,-0.017546184360980988,0.010427623987197876,0.0,0.0,0.0,0.0,0.0,0.0,0.0,0.0,0.0,0.2441025674343109,-0.24948717653751373,9.254359245300293,0.0,0.0,0.0,0.0,0.0,0.0,0.0,0.0,0.0
1646243401.5569708,8007,1646243401,556465062,,0.0,0.0,0.0,0.0,0.0,0.0,0.0,0.0,0.0,0.0,0.0,0.0,0.0,-0.03655100241303444,-0.01648092083632946,-0.008747135289013386,0.0,0.0,0.0,0.0,0.0,0.0,0.0,0.0,0.0,0.2764102518558502,0.2566666603088379,10.015384674072266,0.0,0.0,0.0,0.0,0.0,0.0,0.0,0.0,0.0
1646243401.559036,8008,1646243401,558678129,,0.0,0.0,0.0,0.0,0.0,0.0,0.0,0.0,0.0,0.0,0.0,0.0,0.0,-0.024833092465996742,-0.01115459855645895,-0.005551342852413654,0.0,0.0,0.0,0.0,0.0,0.0,0.0,0.0,0.0,-0.10410256683826447,0.023333333432674408,9.95974349975586,0.0,0.0,0.0,0.0,0.0,0.0,0.0,0.0,0.0
1646243401.561123,8009,1646243401,560849671,,0.0,0.0,0.0,0.0,0.0,0.0,0.0,0.0,0.0,0.0,0.0,0.0,0.0,-0.034420475363731384,-0.0005019548698328435,0.022145532071590424,0.0,0.0,0.0,0.0,0.0,0.0,0.0,0.0,0.0,-0.19025641679763794,0.028717949986457825,10.114103317260742,0.0,0.0,0.0,0.0,0.0,0.0,0.0,0.0,0.0
1646243401.5635257,8010,1646243401,563082835,,0.0,0.0,0.0,0.0,0.0,0.0,0.0,0.0,0.0,0.0,0.0,0.0,0.0,-0.0077888634987175465,0.01441174652427435,0.0008402442326769233,0.0,0.0,0.0,0.0,0.0,0.0,0.0,0.0,0.0,-0.10948718339204788,0.28358975052833557,10.137436866760254,0.0,0.0,0.0,0.0,0.0,0.0,0.0,0.0,0.0
1646243401.5657334,8011,1646243401,565294100,,0.0,0.0,0.0,0.0,0.0,0.0,0.0,0.0,0.0,0.0,0.0,0.0,0.0,-0.03228994458913803,-0.009024071507155895,0.021080268546938896,0.0,0.0,0.0,0.0,0.0,0.0,0.0,0.0,0.0,0.19923077523708344,-0.11846154183149338,9.572051048278809,0.0,0.0,0.0,0.0,0.0,0.0,0.0,0.0,0.0
1646243401.567923,8012,1646243401,567587176,,0.0,0.0,0.0,0.0,0.0,0.0,0.0,0.0,0.0,0.0,0.0,0.0,0.0,-0.01098465733230114,-0.0047630127519369125,-0.01407345850020647,0.0,0.0,0.0,0.0,0.0,0.0,0.0,0.0,0.0,0.3356410562992096,-0.1148717999458313,9.347692489624023,0.0,0.0,0.0,0.0,0.0,0.0,0.0,0.0,0.0
1646243401.570249,8013,1646243401,569857312,,0.0,0.0,0.0,0.0,0.0,0.0,0.0,0.0,0.0,0.0,0.0,0.0,0.0,-0.022702563554048538,0.0005633095279335976,0.004036037251353264,0.0,0.0,0.0,0.0,0.0,0.0,0.0,0.0,0.0,0.39846155047416687,-0.3500000238418579,9.317179679870605,0.0,0.0,0.0,0.0,0.0,0.0,0.0,0.0,0.0
1646243401.5725381,8014,1646243401,572109461,,0.0,0.0,0.0,0.0,0.0,0.0,0.0,0.0,0.0,0.0,0.0,0.0,0.0,-0.022702563554048538,-0.025003038346767426,-0.02366083674132824,0.0,0.0,0.0,0.0,0.0,0.0,0.0,0.0,0.0,0.09153846651315689,0.31589746475219727,9.832307815551758,0.0,0.0,0.0,0.0,0.0,0.0,0.0,0.0,0.0
1646243401.5747569,8015,1646243401,574313571,,0.0,0.0,0.0,0.0,0.0,0.0,0.0,0.0,0.0,0.0,0.0,0.0,0.0,-0.01844150573015213,0.0005633095279335976,-0.01087766420096159,0.0,0.0,0.0,0.0,0.0,0.0,0.0,0.0,0.0,-0.014358974993228912,0.010769231244921684,9.972307205200195,0.0,0.0,0.0,0.0,0.0,0.0,0.0,0.0,0.0
1646243401.5768573,8016,1646243401,576553914,,0.0,0.0,0.0,0.0,0.0,0.0,0.0,0.0,0.0,0.0,0.0,0.0,0.0,-0.016310978680849075,0.01441174652427435,-0.009812399744987488,0.0,0.0,0.0,0.0,0.0,0.0,0.0,0.0,0.0,0.3302564322948456,0.12205128371715546,9.59000015258789,0.0,0.0,0.0,0.0,0.0,0.0,0.0,0.0,0.0
1646243401.5790608,8017,1646243401,578754311,,0.0,0.0,0.0,0.0,0.0,0.0,0.0,0.0,0.0,0.0,0.0,0.0,0.0,-0.024833092465996742,0.0016285729361698031,0.004036037251353264,0.0,0.0,0.0,0.0,0.0,0.0,0.0,0.0,0.0,-0.01794871874153614,0.15794873237609863,9.703076362609863,0.0,0.0,0.0,0.0,0.0,0.0,0.0,0.0,0.0
1646243401.5814366,8018,1646243401,581072471,,0.0,0.0,0.0,0.0,0.0,0.0,0.0,0.0,0.0,0.0,0.0,0.0,0.0,-0.041877321898937225,-0.0036977482959628105,0.014688681811094284,0.0,0.0,0.0,0.0,0.0,0.0,0.0,0.0,0.0,0.014358974993228912,-0.06820512562990189,9.738973617553711,0.0,0.0,0.0,0.0,0.0,0.0,0.0,0.0,0.0
1646243401.5853984,8019,1646243401,583269884,,0.0,0.0,0.0,0.0,0.0,0.0,0.0,0.0,0.0,0.0,0.0,0.0,0.0,-0.005658335518091917,0.006954895332455635,-0.005551342852413654,0.0,0.0,0.0,0.0,0.0,0.0,0.0,0.0,0.0,-0.12923076748847961,0.19923077523708344,10.309743881225586,0.0,0.0,0.0,0.0,0.0,0.0,0.0,0.0,0.0
1646243401.585826,8020,1646243401,585488975,,0.0,0.0,0.0,0.0,0.0,0.0,0.0,0.0,0.0,0.0,0.0,0.0,0.0,-0.03868153318762779,0.00588963134214282,0.017884474247694016,0.0,0.0,0.0,0.0,0.0,0.0,0.0,0.0,0.0,0.09871795028448105,-0.2064102590084076,9.520000457763672,0.0,0.0,0.0,0.0,0.0,0.0,0.0,0.0,0.0
1646243401.5880406,8021,1646243401,587684736,,0.0,0.0,0.0,0.0,0.0,0.0,0.0,0.0,0.0,0.0,0.0,0.0,0.0,-0.026963621377944946,0.006954895332455635,-0.01939977891743183,0.0,0.0,0.0,0.0,0.0,0.0,0.0,0.0,0.0,0.39666667580604553,-0.05743589997291565,9.511025428771973,0.0,0.0,0.0,0.0,0.0,0.0,0.0,0.0,0.0
1646243401.5902295,8022,1646243401,589889034,,0.0,0.0,0.0,0.0,0.0,0.0,0.0,0.0,0.0,0.0,0.0,0.0,0.0,-0.02163730002939701,0.006954895332455635,-0.006616605911403894,0.0,0.0,0.0,0.0,0.0,0.0,0.0,0.0,0.0,0.3769230842590332,-0.22615385055541992,9.1646146774292,0.0,0.0,0.0,0.0,0.0,0.0,0.0,0.0,0.0
1646243401.5925508,8023,1646243401,592184252,,0.0,0.0,0.0,0.0,0.0,0.0,0.0,0.0,0.0,0.0,0.0,0.0,0.0,-0.03335520997643471,0.013346482068300247,0.025341326370835304,0.0,0.0,0.0,0.0,0.0,0.0,0.0,0.0,0.0,0.17230769991874695,0.20461538434028625,9.516409873962402,0.0,0.0,0.0,0.0,0.0,0.0,0.0,0.0,0.0
1646243401.594717,8024,1646243401,594421356,,0.0,0.0,0.0,0.0,0.0,0.0,0.0,0.0,0.0,0.0,0.0,0.0,0.0,-0.028028886765241623,0.020803332328796387,-0.008747135289013386,0.0,0.0,0.0,0.0,0.0,0.0,0.0,0.0,0.0,-0.12205128371715546,0.007179487496614456,9.758718490600586,0.0,0.0,0.0,0.0,0.0,0.0,0.0,0.0,0.0
1646243401.5969882,8025,1646243401,596627763,,0.0,0.0,0.0,0.0,0.0,0.0,0.0,0.0,0.0,0.0,0.0,0.0,0.0,0.001798515673726797,-0.0026324838399887085,0.002970772795379162,0.0,0.0,0.0,0.0,0.0,0.0,0.0,0.0,0.0,-0.1705128252506256,0.28179487586021423,10.002820014953613,0.0,0.0,0.0,0.0,0.0,0.0,0.0,0.0,0.0
1646243401.5995512,8026,1646243401,599040626,,0.0,0.0,0.0,0.0,0.0,0.0,0.0,0.0,0.0,0.0,0.0,0.0,0.0,-0.019506771117448807,-0.0047630127519369125,-0.02046504244208336,0.0,0.0,0.0,0.0,0.0,0.0,0.0,0.0,0.0,-0.17589744925498962,0.14897435903549194,10.135641098022461,0.0,0.0,0.0,0.0,0.0,0.0,0.0,0.0,0.0
1646243401.6016319,8027,1646243401,601251061,,0.0,0.0,0.0,0.0,0.0,0.0,0.0,0.0,0.0,0.0,0.0,0.0,0.0,-0.009919392876327038,0.020803332328796387,-0.0034208132419735193,0.0,0.0,0.0,0.0,0.0,0.0,0.0,0.0,0.0,0.18666666746139526,-0.23692308366298676,9.392563819885254,0.0,0.0,0.0,0.0,0.0,0.0,0.0,0.0,0.0
1646243401.603918,8028,1646243401,603521983,,0.0,0.0,0.0,0.0,0.0,0.0,0.0,0.0,0.0,0.0,0.0,0.0,0.0,-0.0024625419173389673,0.008020159788429737,-0.024726100265979767,0.0,0.0,0.0,0.0,0.0,0.0,0.0,0.0,0.0,0.3823077082633972,-0.05743589997291565,9.356666564941406,0.0,0.0,0.0,0.0,0.0,0.0,0.0,0.0,0.0
1646243401.6061385,8029,1646243401,605775898,,0.0,0.0,0.0,0.0,0.0,0.0,0.0,0.0,0.0,0.0,0.0,0.0,0.0,0.016712216660380363,0.021868597716093063,-0.013008194044232368,0.0,0.0,0.0,0.0,0.0,0.0,0.0,0.0,0.0,-0.04307692497968674,-0.3069230914115906,9.665384292602539,0.0,0.0,0.0,0.0,0.0,0.0,0.0,0.0,0.0
1646243401.6083903,8030,1646243401,608037791,,0.0,0.0,0.0,0.0,0.0,0.0,0.0,0.0,0.0,0.0,0.0,0.0,0.0,-0.0013972773449495435,-0.0047630127519369125,0.0008402442326769233,0.0,0.0,0.0,0.0,0.0,0.0,0.0,0.0,0.0,0.07538461685180664,0.03948718309402466,9.674358367919922,0.0,0.0,0.0,0.0,0.0,0.0,0.0,0.0,0.0
1646243401.610555,8031,1646243401,610255663,,0.0,0.0,0.0,0.0,0.0,0.0,0.0,0.0,0.0,0.0,0.0,0.0,0.0,-0.009919392876327038,0.012281217612326145,-0.013008194044232368,0.0,0.0,0.0,0.0,0.0,0.0,0.0,0.0,0.0,0.22435897588729858,0.05743589997291565,9.482307434082031,0.0,0.0,0.0,0.0,0.0,0.0,0.0,0.0,0.0
1646243401.612908,8032,1646243401,612512251,,0.0,0.0,0.0,0.0,0.0,0.0,0.0,0.0,0.0,0.0,0.0,0.0,0.0,-0.020572034642100334,-0.005828278139233589,-0.006616605911403894,0.0,0.0,0.0,0.0,0.0,0.0,0.0,0.0,0.0,0.34282052516937256,-0.41102564334869385,9.204102516174316,0.0,0.0,0.0,0.0,0.0,0.0,0.0,0.0,0.0
1646243401.6151612,8033,1646243401,614741089,,0.0,0.0,0.0,0.0,0.0,0.0,0.0,0.0,0.0,0.0,0.0,0.0,0.0,0.018842745572328568,0.006954895332455635,-0.021530307829380035,0.0,0.0,0.0,0.0,0.0,0.0,0.0,0.0,0.0,0.025128206238150597,0.03410256281495094,9.764102935791016,0.0,0.0,0.0,0.0,0.0,0.0,0.0,0.0,0.0
1646243401.6174493,8034,1646243401,616976138,,0.0,0.0,0.0,0.0,0.0,0.0,0.0,0.0,0.0,0.0,0.0,0.0,0.0,0.014581688679754734,-0.0026324838399887085,-0.008747135289013386,0.0,0.0,0.0,0.0,0.0,0.0,0.0,0.0,0.0,0.05564102530479431,-0.3087179660797119,9.54153823852539,0.0,0.0,0.0,0.0,0.0,0.0,0.0,0.0,0.0
1646243401.6197147,8035,1646243401,619240486,,0.0,0.0,0.0,0.0,0.0,0.0,0.0,0.0,0.0,0.0,0.0,0.0,0.0,0.003929044120013714,0.020803332328796387,0.00723183061927557,0.0,0.0,0.0,0.0,0.0,0.0,0.0,0.0,0.0,-0.2943589687347412,0.34641027450561523,10.148205757141113,0.0,0.0,0.0,0.0,0.0,0.0,0.0,0.0,0.0
1646243401.6218643,8036,1646243401,621466242,,0.0,0.0,0.0,0.0,0.0,0.0,0.0,0.0,0.0,0.0,0.0,0.0,0.0,0.004994308575987816,0.008020159788429737,-0.013008194044232368,0.0,0.0,0.0,0.0,0.0,0.0,0.0,0.0,0.0,-0.04307692497968674,-0.3500000238418579,9.712051391601562,0.0,0.0,0.0,0.0,0.0,0.0,0.0,0.0,0.0
1646243401.6241431,8037,1646243401,623707211,,0.0,0.0,0.0,0.0,0.0,0.0,0.0,0.0,0.0,0.0,0.0,0.0,0.0,0.016712216660380363,0.00588963134214282,-0.01939977891743183,0.0,0.0,0.0,0.0,0.0,0.0,0.0,0.0,0.0,0.34641027450561523,0.14897435903549194,9.259743690490723,0.0,0.0,0.0,0.0,0.0,0.0,0.0,0.0,0.0
1646243401.6269634,8038,1646243401,625880050,,0.0,0.0,0.0,0.0,0.0,0.0,0.0,0.0,0.0,0.0,0.0,0.0,0.0,0.019908009096980095,0.006954895332455635,0.006166566163301468,0.0,0.0,0.0,0.0,0.0,0.0,0.0,0.0,0.0,0.22794872522354126,-0.08615384995937347,9.380000114440918,0.0,0.0,0.0,0.0,0.0,0.0,0.0,0.0,0.0
1646243401.6284442,8039,1646243401,628101149,,0.0,0.0,0.0,0.0,0.0,0.0,0.0,0.0,0.0,0.0,0.0,0.0,0.0,0.003929044120013714,0.010150688700377941,0.00723183061927557,0.0,0.0,0.0,0.0,0.0,0.0,0.0,0.0,0.0,0.08615384995937347,-0.4235897660255432,9.498461723327637,0.0,0.0,0.0,0.0,0.0,0.0,0.0,0.0,0.0
1646243401.6306546,8040,1646243401,630306855,,0.0,0.0,0.0,0.0,0.0,0.0,0.0,0.0,0.0,0.0,0.0,0.0,0.0,0.012451158836483955,0.021868597716093063,-0.01087766420096159,0.0,0.0,0.0,0.0,0.0,0.0,0.0,0.0,0.0,-0.3410256505012512,0.11128205060958862,10.329487800598145,0.0,0.0,0.0,0.0,0.0,0.0,0.0,0.0,0.0
1646243401.633029,8041,1646243401,632550756,,0.0,0.0,0.0,0.0,0.0,0.0,0.0,0.0,0.0,0.0,0.0,0.0,0.0,0.001798515673726797,0.01973806880414486,-0.004486078396439552,0.0,0.0,0.0,0.0,0.0,0.0,0.0,0.0,0.0,-0.21000000834465027,-0.18666666746139526,10.04769229888916,0.0,0.0,0.0,0.0,0.0,0.0,0.0,0.0,0.0
1646243401.6351094,8042,1646243401,634821796,,0.0,0.0,0.0,0.0,0.0,0.0,0.0,0.0,0.0,0.0,0.0,0.0,0.0,0.008190101943910122,-0.005828278139233589,0.010427623987197876,0.0,0.0,0.0,0.0,0.0,0.0,0.0,0.0,0.0,-0.2674359083175659,-0.026923077180981636,9.93820571899414,0.0,0.0,0.0,0.0,0.0,0.0,0.0,0.0,0.0
1646243401.6373596,8043,1646243401,637069667,,0.0,0.0,0.0,0.0,0.0,0.0,0.0,0.0,0.0,0.0,0.0,0.0,0.0,0.027364861220121384,-0.017546184360980988,-0.03750927746295929,0.0,0.0,0.0,0.0,0.0,0.0,0.0,0.0,0.0,-0.16871795058250427,0.08076923340559006,10.44615364074707,0.0,0.0,0.0,0.0,0.0,0.0,0.0,0.0,0.0
1646243401.6395836,8044,1646243401,639285350,,0.0,0.0,0.0,0.0,0.0,0.0,0.0,0.0,0.0,0.0,0.0,0.0,0.0,-0.008854128420352936,0.011215953156352043,0.009362359531223774,0.0,0.0,0.0,0.0,0.0,0.0,0.0,0.0,0.0,0.1238461583852768,-0.42000001668930054,9.44282054901123,0.0,0.0,0.0,0.0,0.0,0.0,0.0,0.0,0.0
1646243401.6419191,8045,1646243401,641493316,,0.0,0.0,0.0,0.0,0.0,0.0,0.0,0.0,0.0,0.0,0.0,0.0,0.0,0.0028637798968702555,-0.0015672193840146065,-0.01407345850020647,0.0,0.0,0.0,0.0,0.0,0.0,0.0,0.0,0.0,0.18128205835819244,-0.11307692527770996,9.667179107666016,0.0,0.0,0.0,0.0,0.0,0.0,0.0,0.0,0.0
1646243401.6440976,8046,1646243401,643727419,,0.0,0.0,0.0,0.0,0.0,0.0,0.0,0.0,0.0,0.0,0.0,0.0,0.0,0.02097327448427677,-0.010089334100484848,-0.0023555487859994173,0.0,0.0,0.0,0.0,0.0,0.0,0.0,0.0,0.0,-0.2117948830127716,-0.26923078298568726,9.807180404663086,0.0,0.0,0.0,0.0,0.0,0.0,0.0,0.0,0.0
1646243401.6463218,8047,1646243401,645975431,,0.0,0.0,0.0,0.0,0.0,0.0,0.0,0.0,0.0,0.0,0.0,0.0,0.0,0.02949538826942444,0.009085424244403839,0.004036037251353264,0.0,0.0,0.0,0.0,0.0,0.0,0.0,0.0,0.0,-0.12564103305339813,0.08076923340559006,9.956153869628906,0.0,0.0,0.0,0.0,0.0,0.0,0.0,0.0,0.0
1646243401.6485956,8048,1646243401,648235431,,0.0,0.0,0.0,0.0,0.0,0.0,0.0,0.0,0.0,0.0,0.0,0.0,0.0,0.01777748018503189,0.01973806880414486,-0.0034208132419735193,0.0,0.0,0.0,0.0,0.0,0.0,0.0,0.0,0.0,-0.3176923394203186,-0.16153846681118011,10.072820663452148,0.0,0.0,0.0,0.0,0.0,0.0,0.0,0.0,0.0
1646243401.650866,8049,1646243401,650450207,,0.0,0.0,0.0,0.0,0.0,0.0,0.0,0.0,0.0,0.0,0.0,0.0,0.0,0.02523433417081833,0.010150688700377941,-0.018334513530135155,0.0,0.0,0.0,0.0,0.0,0.0,0.0,0.0,0.0,0.23153845965862274,-0.3679487407207489,9.593589782714844,0.0,0.0,0.0,0.0,0.0,0.0,0.0,0.0,0.0
1646243401.6530323,8050,1646243401,652672082,,0.0,0.0,0.0,0.0,0.0,0.0,0.0,0.0,0.0,0.0,0.0,0.0,0.0,0.003929044120013714,0.0005633095279335976,-0.004486078396439552,0.0,0.0,0.0,0.0,0.0,0.0,0.0,0.0,0.0,-0.11666666716337204,0.030512820929288864,10.114103317260742,0.0,0.0,0.0,0.0,0.0,0.0,0.0,0.0,0.0
1646243401.655236,8051,1646243401,654898930,,0.0,0.0,0.0,0.0,0.0,0.0,0.0,0.0,0.0,0.0,0.0,0.0,0.0,0.0220385380089283,-0.01115459855645895,-0.004486078396439552,0.0,0.0,0.0,0.0,0.0,0.0,0.0,0.0,0.0,0.16692309081554413,-0.35179489850997925,9.455384254455566,0.0,0.0,0.0,0.0,0.0,0.0,0.0,0.0,0.0
1646243401.6573565,8052,1646243401,657101726,,0.0,0.0,0.0,0.0,0.0,0.0,0.0,0.0,0.0,0.0,0.0,0.0,0.0,0.048670150339603424,0.0026938372757285833,0.01255815289914608,0.0,0.0,0.0,0.0,0.0,0.0,0.0,0.0,0.0,-0.10769230872392654,0.4325641095638275,10.185897827148438,0.0,0.0,0.0,0.0,0.0,0.0,0.0,0.0,0.0
1646243401.6597838,8053,1646243401,659413989,,0.0,0.0,0.0,0.0,0.0,0.0,0.0,0.0,0.0,0.0,0.0,0.0,0.0,0.02097327448427677,-0.0026324838399887085,0.008297095075249672,0.0,0.0,0.0,0.0,0.0,0.0,0.0,0.0,0.0,0.1794871836900711,-0.3679487407207489,9.613333702087402,0.0,0.0,0.0,0.0,0.0,0.0,0.0,0.0,0.0
1646243401.6620185,8054,1646243401,661702416,,0.0,0.0,0.0,0.0,0.0,0.0,0.0,0.0,0.0,0.0,0.0,0.0,0.0,0.038017503917217255,0.0037591024301946163,0.0019055086886510253,0.0,0.0,0.0,0.0,0.0,0.0,0.0,0.0,0.0,0.37512820959091187,0.14358974993228912,9.545127868652344,0.0,0.0,0.0,0.0,0.0,0.0,0.0,0.0,0.0
1646243401.6642358,8055,1646243401,663934377,,0.0,0.0,0.0,0.0,0.0,0.0,0.0,0.0,0.0,0.0,0.0,0.0,0.0,0.02949538826942444,-0.03245988488197327,-0.009812399744987488,0.0,0.0,0.0,0.0,0.0,0.0,0.0,0.0,0.0,0.3446153998374939,-0.001794871874153614,9.695897102355957,0.0,0.0,0.0,0.0,0.0,0.0,0.0,0.0,0.0
1646243401.6665344,8056,1646243401,666212015,,0.0,0.0,0.0,0.0,0.0,0.0,0.0,0.0,0.0,0.0,0.0,0.0,0.0,0.04547435790300369,0.0016285729361698031,0.014688681811094284,0.0,0.0,0.0,0.0,0.0,0.0,0.0,0.0,0.0,-0.07897436618804932,-0.24589744210243225,9.932821273803711,0.0,0.0,0.0,0.0,0.0,0.0,0.0,0.0,0.0
1646243401.6699038,8057,1646243401,668453118,,0.0,0.0,0.0,0.0,0.0,0.0,0.0,0.0,0.0,0.0,0.0,0.0,0.0,0.02949538826942444,0.0016285729361698031,-0.0034208132419735193,0.0,0.0,0.0,0.0,0.0,0.0,0.0,0.0,0.0,-0.34641027450561523,0.23153845965862274,10.180513381958008,0.0,0.0,0.0,0.0,0.0,0.0,0.0,0.0,0.0
1646243401.6709266,8058,1646243401,670699583,,0.0,0.0,0.0,0.0,0.0,0.0,0.0,0.0,0.0,0.0,0.0,0.0,0.0,0.024169068783521652,-0.04630832374095917,-0.009812399744987488,0.0,0.0,0.0,0.0,0.0,0.0,0.0,0.0,0.0,-0.15076923370361328,-0.15794873237609863,10.088973999023438,0.0,0.0,0.0,0.0,0.0,0.0,0.0,0.0,0.0
1646243401.6732268,8059,1646243401,672969790,,0.0,0.0,0.0,0.0,0.0,0.0,0.0,0.0,0.0,0.0,0.0,0.0,0.0,0.02949538826942444,0.013346482068300247,0.002970772795379162,0.0,0.0,0.0,0.0,0.0,0.0,0.0,0.0,0.0,0.02153846248984337,0.29615384340286255,9.73717975616455,0.0,0.0,0.0,0.0,0.0,0.0,0.0,0.0,0.0
1646243401.6757078,8060,1646243401,675205537,,0.0,0.0,0.0,0.0,0.0,0.0,0.0,0.0,0.0,0.0,0.0,0.0,0.0,0.030560653656721115,-0.026068301871418953,0.006166566163301468,0.0,0.0,0.0,0.0,0.0,0.0,0.0,0.0,0.0,0.3500000238418579,-0.3482051491737366,9.380000114440918,0.0,0.0,0.0,0.0,0.0,0.0,0.0,0.0,0.0
1646243401.6779351,8061,1646243401,677595690,,0.0,0.0,0.0,0.0,0.0,0.0,0.0,0.0,0.0,0.0,0.0,0.0,0.0,0.012451158836483955,0.004824366886168718,0.004036037251353264,0.0,0.0,0.0,0.0,0.0,0.0,0.0,0.0,0.0,0.14897435903549194,0.20820513367652893,9.60076904296875,0.0,0.0,0.0,0.0,0.0,0.0,0.0,0.0,0.0
1646243401.6805024,8062,1646243401,679879676,,0.0,0.0,0.0,0.0,0.0,0.0,0.0,0.0,0.0,0.0,0.0,0.0,0.0,0.027364861220121384,0.01973806880414486,0.01255815289914608,0.0,0.0,0.0,0.0,0.0,0.0,0.0,0.0,0.0,0.09153846651315689,-0.06461538374423981,9.891538619995117,0.0,0.0,0.0,0.0,0.0,0.0,0.0,0.0,0.0
1646243401.6825142,8063,1646243401,682089505,,0.0,0.0,0.0,0.0,0.0,0.0,0.0,0.0,0.0,0.0,0.0,0.0,0.0,0.003929044120013714,-0.012219863012433052,0.03173290938138962,0.0,0.0,0.0,0.0,0.0,0.0,0.0,0.0,0.0,-0.29076921939849854,-0.12923076748847961,9.9399995803833,0.0,0.0,0.0,0.0,0.0,0.0,0.0,0.0,0.0
1646243401.6847246,8064,1646243401,684366434,,0.0,0.0,0.0,0.0,0.0,0.0,0.0,0.0,0.0,0.0,0.0,0.0,0.0,0.03482171148061752,-0.0015672193840146065,-0.021530307829380035,0.0,0.0,0.0,0.0,0.0,0.0,0.0,0.0,0.0,-0.26025640964508057,0.29615384340286255,10.191282272338867,0.0,0.0,0.0,0.0,0.0,0.0,0.0,0.0,0.0
1646243401.6870263,8065,1646243401,686580503,,0.0,0.0,0.0,0.0,0.0,0.0,0.0,0.0,0.0,0.0,0.0,0.0,0.0,0.026299597695469856,-0.007958807051181793,0.002970772795379162,0.0,0.0,0.0,0.0,0.0,0.0,0.0,0.0,0.0,0.07179487496614456,-0.1651282161474228,9.9005126953125,0.0,0.0,0.0,0.0,0.0,0.0,0.0,0.0,0.0
1646243401.68918,8066,1646243401,688786286,,0.0,0.0,0.0,0.0,0.0,0.0,0.0,0.0,0.0,0.0,0.0,0.0,0.0,0.030560653656721115,0.006954895332455635,-0.0012902843300253153,0.0,0.0,0.0,0.0,0.0,0.0,0.0,0.0,0.0,0.001794871874153614,0.23333333432674408,9.415897369384766,0.0,0.0,0.0,0.0,0.0,0.0,0.0,0.0,0.0
1646243401.6912658,8067,1646243401,691008495,,0.0,0.0,0.0,0.0,0.0,0.0,0.0,0.0,0.0,0.0,0.0,0.0,0.0,0.012451158836483955,-0.01115459855645895,-0.006616605911403894,0.0,0.0,0.0,0.0,0.0,0.0,0.0,0.0,0.0,-0.2207692414522171,0.23153845965862274,10.252307891845703,0.0,0.0,0.0,0.0,0.0,0.0,0.0,0.0,0.0
1646243401.6936157,8068,1646243401,693213055,,0.0,0.0,0.0,0.0,0.0,0.0,0.0,0.0,0.0,0.0,0.0,0.0,0.0,0.044409092515707016,0.0026938372757285833,-0.01407345850020647,0.0,0.0,0.0,0.0,0.0,0.0,0.0,0.0,0.0,-0.16871795058250427,0.044871795922517776,10.114103317260742,0.0,0.0,0.0,0.0,0.0,0.0,0.0,0.0,0.0
1646243401.695907,8069,1646243401,695467957,,0.0,0.0,0.0,0.0,0.0,0.0,0.0,0.0,0.0,0.0,0.0,0.0,0.0,0.019908009096980095,0.00588963134214282,0.009362359531223774,0.0,0.0,0.0,0.0,0.0,0.0,0.0,0.0,0.0,0.22615385055541992,-0.0412820540368557,9.476922988891602,0.0,0.0,0.0,0.0,0.0,0.0,0.0,0.0,0.0
1646243401.6982212,8070,1646243401,697758594,,0.0,0.0,0.0,0.0,0.0,0.0,0.0,0.0,0.0,0.0,0.0,0.0,0.0,0.0358869731426239,0.00588963134214282,0.006166566163301468,0.0,0.0,0.0,0.0,0.0,0.0,0.0,0.0,0.0,0.30512821674346924,-0.0412820540368557,9.439230918884277,0.0,0.0,0.0,0.0,0.0,0.0,0.0,0.0,0.0
1646243401.7004285,8071,1646243401,700036846,,0.0,0.0,0.0,0.0,0.0,0.0,0.0,0.0,0.0,0.0,0.0,0.0,0.0,0.03162591904401779,-0.015415656380355358,-0.01407345850020647,0.0,0.0,0.0,0.0,0.0,0.0,0.0,0.0,0.0,0.2674359083175659,0.046666666865348816,9.480512619018555,0.0,0.0,0.0,0.0,0.0,0.0,0.0,0.0,0.0
1646243401.7027595,8072,1646243401,702241831,,0.0,0.0,0.0,0.0,0.0,0.0,0.0,0.0,0.0,0.0,0.0,0.0,0.0,0.04014803469181061,0.0016285729361698031,-0.0012902843300253153,0.0,0.0,0.0,0.0,0.0,0.0,0.0,0.0,0.0,0.06282051652669907,-0.2297435998916626,9.704872131347656,0.0,0.0,0.0,0.0,0.0,0.0,0.0,0.0,0.0
1646243401.7048266,8073,1646243401,704394418,,0.0,0.0,0.0,0.0,0.0,0.0,0.0,0.0,0.0,0.0,0.0,0.0,0.0,0.0220385380089283,0.010150688700377941,0.02640658989548683,0.0,0.0,0.0,0.0,0.0,0.0,0.0,0.0,0.0,-0.1974359005689621,0.3446153998374939,10.236153602600098,0.0,0.0,0.0,0.0,0.0,0.0,0.0,0.0,0.0
1646243401.7069032,8074,1646243401,706592701,,0.0,0.0,0.0,0.0,0.0,0.0,0.0,0.0,0.0,0.0,0.0,0.0,0.0,0.02949538826942444,0.008020159788429737,-0.01407345850020647,0.0,0.0,0.0,0.0,0.0,0.0,0.0,0.0,0.0,0.016153845936059952,-0.08794872462749481,9.936410903930664,0.0,0.0,0.0,0.0,0.0,0.0,0.0,0.0,0.0
1646243401.7092667,8075,1646243401,708835479,,0.0,0.0,0.0,0.0,0.0,0.0,0.0,0.0,0.0,0.0,0.0,0.0,0.0,0.03482171148061752,0.028260184451937675,-0.00022502047067973763,0.0,0.0,0.0,0.0,0.0,0.0,0.0,0.0,0.0,0.01794871874153614,-0.01794871874153614,9.913077354431152,0.0,0.0,0.0,0.0,0.0,0.0,0.0,0.0,0.0
1646243401.7126987,8076,1646243401,711057168,,0.0,0.0,0.0,0.0,0.0,0.0,0.0,0.0,0.0,0.0,0.0,0.0,0.0,0.038017503917217255,-0.010089334100484848,-0.0162039864808321,0.0,0.0,0.0,0.0,0.0,0.0,0.0,0.0,0.0,0.3069230914115906,0.01974359154701233,9.514616012573242,0.0,0.0,0.0,0.0,0.0,0.0,0.0,0.0,0.0
1646243401.7135928,8077,1646243401,713266557,,0.0,0.0,0.0,0.0,0.0,0.0,0.0,0.0,0.0,0.0,0.0,0.0,0.0,0.015646953135728836,0.010150688700377941,0.03386344015598297,0.0,0.0,0.0,0.0,0.0,0.0,0.0,0.0,0.0,0.3446153998374939,-0.07897436618804932,9.455384254455566,0.0,0.0,0.0,0.0,0.0,0.0,0.0,0.0,0.0
1646243401.7158437,8078,1646243401,715476063,,0.0,0.0,0.0,0.0,0.0,0.0,0.0,0.0,0.0,0.0,0.0,0.0,0.0,0.015646953135728836,0.020803332328796387,-0.004486078396439552,0.0,0.0,0.0,0.0,0.0,0.0,0.0,0.0,0.0,0.09333333373069763,0.25128206610679626,9.997435569763184,0.0,0.0,0.0,0.0,0.0,0.0,0.0,0.0,0.0
1646243401.7180848,8079,1646243401,717746204,,0.0,0.0,0.0,0.0,0.0,0.0,0.0,0.0,0.0,0.0,0.0,0.0,0.0,0.018842745572328568,0.023999126628041267,0.00723183061927557,0.0,0.0,0.0,0.0,0.0,0.0,0.0,0.0,0.0,0.28179487586021423,-0.23512820899486542,9.318974494934082,0.0,0.0,0.0,0.0,0.0,0.0,0.0,0.0,0.0
1646243401.720339,8080,1646243401,719973176,,0.0,0.0,0.0,0.0,0.0,0.0,0.0,0.0,0.0,0.0,0.0,0.0,0.0,0.00925536546856165,0.006954895332455635,-0.0034208132419735193,0.0,0.0,0.0,0.0,0.0,0.0,0.0,0.0,0.0,0.46128207445144653,0.2028205245733261,9.315383911132812,0.0,0.0,0.0,0.0,0.0,0.0,0.0,0.0,0.0
1646243401.7224977,8081,1646243401,722175771,,0.0,0.0,0.0,0.0,0.0,0.0,0.0,0.0,0.0,0.0,0.0,0.0,0.0,0.03695223852992058,-0.0005019548698328435,-0.0012902843300253153,0.0,0.0,0.0,0.0,0.0,0.0,0.0,0.0,0.0,0.27820512652397156,-0.12743589282035828,9.380000114440918,0.0,0.0,0.0,0.0,0.0,0.0,0.0,0.0,0.0
1646243401.7249768,8082,1646243401,724428321,,0.0,0.0,0.0,0.0,0.0,0.0,0.0,0.0,0.0,0.0,0.0,0.0,0.0,-0.0003320134710520506,0.0026938372757285833,-0.0023555487859994173,0.0,0.0,0.0,0.0,0.0,0.0,0.0,0.0,0.0,-0.1471794843673706,0.4325641095638275,9.95974349975586,0.0,0.0,0.0,0.0,0.0,0.0,0.0,0.0,0.0
1646243401.727164,8083,1646243401,726721116,,0.0,0.0,0.0,0.0,0.0,0.0,0.0,0.0,0.0,0.0,0.0,0.0,0.0,0.015646953135728836,-0.0015672193840146065,0.01255815289914608,0.0,0.0,0.0,0.0,0.0,0.0,0.0,0.0,0.0,-0.05564102530479431,0.03589743748307228,9.956153869628906,0.0,0.0,0.0,0.0,0.0,0.0,0.0,0.0,0.0
1646243401.7295275,8084,1646243401,729040626,,0.0,0.0,0.0,0.0,0.0,0.0,0.0,0.0,0.0,0.0,0.0,0.0,0.0,-0.0067235990427434444,0.011215953156352043,0.0008402442326769233,0.0,0.0,0.0,0.0,0.0,0.0,0.0,0.0,0.0,-0.1382051259279251,0.03948718309402466,9.929230690002441,0.0,0.0,0.0,0.0,0.0,0.0,0.0,0.0,0.0
1646243401.7316647,8085,1646243401,731270695,,0.0,0.0,0.0,0.0,0.0,0.0,0.0,0.0,0.0,0.0,0.0,0.0,0.0,0.004994308575987816,0.01441174652427435,-0.0012902843300253153,0.0,0.0,0.0,0.0,0.0,0.0,0.0,0.0,0.0,0.005384615622460842,0.16871795058250427,9.717435836791992,0.0,0.0,0.0,0.0,0.0,0.0,0.0,0.0,0.0
1646243401.7338831,8086,1646243401,733498895,,0.0,0.0,0.0,0.0,0.0,0.0,0.0,0.0,0.0,0.0,0.0,0.0,0.0,-0.005658335518091917,-0.0026324838399887085,0.029602382332086563,0.0,0.0,0.0,0.0,0.0,0.0,0.0,0.0,0.0,0.2889743745326996,-0.1741025745868683,9.213077545166016,0.0,0.0,0.0,0.0,0.0,0.0,0.0,0.0,0.0
1646243401.736067,8087,1646243401,735728348,,0.0,0.0,0.0,0.0,0.0,0.0,0.0,0.0,0.0,0.0,0.0,0.0,0.0,0.014581688679754734,0.0005633095279335976,-0.018334513530135155,0.0,0.0,0.0,0.0,0.0,0.0,0.0,0.0,0.0,0.09692308306694031,0.15256410837173462,9.712051391601562,0.0,0.0,0.0,0.0,0.0,0.0,0.0,0.0,0.0
1646243401.7384076,8088,1646243401,737945956,,0.0,0.0,0.0,0.0,0.0,0.0,0.0,0.0,0.0,0.0,0.0,0.0,0.0,0.0028637798968702555,-0.01115459855645895,0.006166566163301468,0.0,0.0,0.0,0.0,0.0,0.0,0.0,0.0,0.0,0.06102564185857773,0.09512820839881897,9.581025123596191,0.0,0.0,0.0,0.0,0.0,0.0,0.0,0.0,0.0
1646243401.7406635,8089,1646243401,740164967,,0.0,0.0,0.0,0.0,0.0,0.0,0.0,0.0,0.0,0.0,0.0,0.0,0.0,0.00712483748793602,-0.010089334100484848,0.010427623987197876,0.0,0.0,0.0,0.0,0.0,0.0,0.0,0.0,0.0,-0.24948717653751373,0.5241025686264038,9.970513343811035,0.0,0.0,0.0,0.0,0.0,0.0,0.0,0.0,0.0
1646243401.7428532,8090,1646243401,742385429,,0.0,0.0,0.0,0.0,0.0,0.0,0.0,0.0,0.0,0.0,0.0,0.0,0.0,0.0103206317871809,0.004824366886168718,-0.006616605911403894,0.0,0.0,0.0,0.0,0.0,0.0,0.0,0.0,0.0,-0.023333333432674408,0.08435897529125214,9.792820930480957,0.0,0.0,0.0,0.0,0.0,0.0,0.0,0.0,0.0
1646243401.7449594,8091,1646243401,744592914,,0.0,0.0,0.0,0.0,0.0,0.0,0.0,0.0,0.0,0.0,0.0,0.0,0.0,0.0007332512177526951,-0.012219863012433052,0.02001500315964222,0.0,0.0,0.0,0.0,0.0,0.0,0.0,0.0,0.0,0.023333333432674408,0.19923077523708344,9.751538276672363,0.0,0.0,0.0,0.0,0.0,0.0,0.0,0.0,0.0
1646243401.7471614,8092,1646243401,746775242,,0.0,0.0,0.0,0.0,0.0,0.0,0.0,0.0,0.0,0.0,0.0,0.0,0.0,0.014581688679754734,-0.012219863012433052,-0.01087766420096159,0.0,0.0,0.0,0.0,0.0,0.0,0.0,0.0,0.0,0.18487180769443512,0.20820513367652893,9.588204383850098,0.0,0.0,0.0,0.0,0.0,0.0,0.0,0.0,0.0
1646243401.7494125,8093,1646243401,749038556,,0.0,0.0,0.0,0.0,0.0,0.0,0.0,0.0,0.0,0.0,0.0,0.0,0.0,-0.01098465733230114,-0.0005019548698328435,0.009362359531223774,0.0,0.0,0.0,0.0,0.0,0.0,0.0,0.0,0.0,-0.24230769276618958,0.2064102590084076,9.999231338500977,0.0,0.0,0.0,0.0,0.0,0.0,0.0,0.0,0.0
1646243401.7516952,8094,1646243401,751242906,,0.0,0.0,0.0,0.0,0.0,0.0,0.0,0.0,0.0,0.0,0.0,0.0,0.0,-0.0035278063733130693,0.01654227450489998,-0.011942928656935692,0.0,0.0,0.0,0.0,0.0,0.0,0.0,0.0,0.0,-0.05743589997291565,0.49000000953674316,9.925641059875488,0.0,0.0,0.0,0.0,0.0,0.0,0.0,0.0,0.0
1646243401.7551723,8095,1646243401,753477211,,0.0,0.0,0.0,0.0,0.0,0.0,0.0,0.0,0.0,0.0,0.0,0.0,0.0,0.0028637798968702555,0.00588963134214282,0.01681920886039734,0.0,0.0,0.0,0.0,0.0,0.0,0.0,0.0,0.0,0.14358974993228912,-0.14897435903549194,9.234615325927734,0.0,0.0,0.0,0.0,0.0,0.0,0.0,0.0,0.0
1646243401.755981,8096,1646243401,755690033,,0.0,0.0,0.0,0.0,0.0,0.0,0.0,0.0,0.0,0.0,0.0,0.0,0.0,-0.005658335518091917,0.0016285729361698031,-0.01407345850020647,0.0,0.0,0.0,0.0,0.0,0.0,0.0,0.0,0.0,0.16692309081554413,0.28179487586021423,9.557692527770996,0.0,0.0,0.0,0.0,0.0,0.0,0.0,0.0,0.0
1646243401.7584648,8097,1646243401,757902018,,0.0,0.0,0.0,0.0,0.0,0.0,0.0,0.0,0.0,0.0,0.0,0.0,0.0,-0.0035278063733130693,0.008020159788429737,0.017884474247694016,0.0,0.0,0.0,0.0,0.0,0.0,0.0,0.0,0.0,0.13102564215660095,0.32846155762672424,9.624102592468262,0.0,0.0,0.0,0.0,0.0,0.0,0.0,0.0,0.0
1646243401.760421,8098,1646243401,760103095,,0.0,0.0,0.0,0.0,0.0,0.0,0.0,0.0,0.0,0.0,0.0,0.0,0.0,-0.030159417539834976,-0.0026324838399887085,0.013623417355120182,0.0,0.0,0.0,0.0,0.0,0.0,0.0,0.0,0.0,-0.0735897421836853,0.07897436618804932,10.05307674407959,0.0,0.0,0.0,0.0,0.0,0.0,0.0,0.0,0.0
1646243401.7628653,8099,1646243401,762366731,,0.0,0.0,0.0,0.0,0.0,0.0,0.0,0.0,0.0,0.0,0.0,0.0,0.0,0.011385894380509853,-0.0047630127519369125,-0.022595571354031563,0.0,0.0,0.0,0.0,0.0,0.0,0.0,0.0,0.0,-0.23512820899486542,0.4415384829044342,10.09794807434082,0.0,0.0,0.0,0.0,0.0,0.0,0.0,0.0,0.0
1646243401.764976,8100,1646243401,764604081,,0.0,0.0,0.0,0.0,0.0,0.0,0.0,0.0,0.0,0.0,0.0,0.0,0.0,-0.004593071062117815,0.011215953156352043,0.009362359531223774,0.0,0.0,0.0,0.0,0.0,0.0,0.0,0.0,0.0,0.03410256281495094,0.12205128371715546,9.771282196044922,0.0,0.0,0.0,0.0,0.0,0.0,0.0,0.0,0.0
1646243401.7671385,8101,1646243401,766806478,,0.0,0.0,0.0,0.0,0.0,0.0,0.0,0.0,0.0,0.0,0.0,0.0,0.0,-0.023767828941345215,0.0005633095279335976,-0.00022502047067973763,0.0,0.0,0.0,0.0,0.0,0.0,0.0,0.0,0.0,0.19025641679763794,0.47025641798973083,9.765897750854492,0.0,0.0,0.0,0.0,0.0,0.0,0.0,0.0,0.0
1646243401.7693717,8102,1646243401,769039362,,0.0,0.0,0.0,0.0,0.0,0.0,0.0,0.0,0.0,0.0,0.0,0.0,0.0,-0.0003320134710520506,0.018672803416848183,-0.0023555487859994173,0.0,0.0,0.0,0.0,0.0,0.0,0.0,0.0,0.0,0.3141025900840759,-0.1058974415063858,9.20769214630127,0.0,0.0,0.0,0.0,0.0,0.0,0.0,0.0,0.0
1646243401.7717054,8103,1646243401,771301263,,0.0,0.0,0.0,0.0,0.0,0.0,0.0,0.0,0.0,0.0,0.0,0.0,0.0,-0.023767828941345215,0.008020159788429737,0.004036037251353264,0.0,0.0,0.0,0.0,0.0,0.0,0.0,0.0,0.0,-0.03589743748307228,0.4271794855594635,9.907692909240723,0.0,0.0,0.0,0.0,0.0,0.0,0.0,0.0,0.0
1646243401.7740593,8104,1646243401,773629135,,0.0,0.0,0.0,0.0,0.0,0.0,0.0,0.0,0.0,0.0,0.0,0.0,0.0,-0.01098465733230114,0.0005633095279335976,-0.021530307829380035,0.0,0.0,0.0,0.0,0.0,0.0,0.0,0.0,0.0,0.1884615421295166,0.01974359154701233,9.51282024383545,0.0,0.0,0.0,0.0,0.0,0.0,0.0,0.0,0.0
1646243401.7762659,8105,1646243401,775864660,,0.0,0.0,0.0,0.0,0.0,0.0,0.0,0.0,0.0,0.0,0.0,0.0,0.0,-0.02163730002939701,0.010150688700377941,0.008297095075249672,0.0,0.0,0.0,0.0,0.0,0.0,0.0,0.0,0.0,-0.40743592381477356,0.07538461685180664,10.246922492980957,0.0,0.0,0.0,0.0,0.0,0.0,0.0,0.0,0.0
1646243401.778385,8106,1646243401,778079626,,0.0,0.0,0.0,0.0,0.0,0.0,0.0,0.0,0.0,0.0,0.0,0.0,0.0,-0.02909415028989315,-0.010089334100484848,-0.004486078396439552,0.0,0.0,0.0,0.0,0.0,0.0,0.0,0.0,0.0,-0.08794872462749481,0.3912820518016815,10.045896530151367,0.0,0.0,0.0,0.0,0.0,0.0,0.0,0.0,0.0
1646243401.7806938,8107,1646243401,780291652,,0.0,0.0,0.0,0.0,0.0,0.0,0.0,0.0,0.0,0.0,0.0,0.0,0.0,-0.017376242205500603,0.00588963134214282,0.01575394533574581,0.0,0.0,0.0,0.0,0.0,0.0,0.0,0.0,0.0,-0.16692309081554413,0.05743589997291565,9.886154174804688,0.0,0.0,0.0,0.0,0.0,0.0,0.0,0.0,0.0
1646243401.783007,8108,1646243401,782522755,,0.0,0.0,0.0,0.0,0.0,0.0,0.0,0.0,0.0,0.0,0.0,0.0,0.0,-0.019506771117448807,-0.0026324838399887085,-0.027921894565224648,0.0,0.0,0.0,0.0,0.0,0.0,0.0,0.0,0.0,-0.22435897588729858,0.5133333206176758,10.537692070007324,0.0,0.0,0.0,0.0,0.0,0.0,0.0,0.0,0.0
1646243401.785274,8109,1646243401,784815647,,0.0,0.0,0.0,0.0,0.0,0.0,0.0,0.0,0.0,0.0,0.0,0.0,0.0,-0.031224681064486504,-0.012219863012433052,-0.018334513530135155,0.0,0.0,0.0,0.0,0.0,0.0,0.0,0.0,0.0,-0.2028205245733261,0.23512820899486542,10.185897827148438,0.0,0.0,0.0,0.0,0.0,0.0,0.0,0.0,0.0
1646243401.7875447,8110,1646243401,787075525,,0.0,0.0,0.0,0.0,0.0,0.0,0.0,0.0,0.0,0.0,0.0,0.0,0.0,-0.008854128420352936,-0.010089334100484848,0.01255815289914608,0.0,0.0,0.0,0.0,0.0,0.0,0.0,0.0,0.0,-0.03769230842590332,0.19923077523708344,9.839487075805664,0.0,0.0,0.0,0.0,0.0,0.0,0.0,0.0,0.0
1646243401.7896879,8111,1646243401,789304593,,0.0,0.0,0.0,0.0,0.0,0.0,0.0,0.0,0.0,0.0,0.0,0.0,0.0,-0.028028886765241623,0.0016285729361698031,-0.0034208132419735193,0.0,0.0,0.0,0.0,0.0,0.0,0.0,0.0,0.0,0.3266666829586029,-0.10051282495260239,9.369231224060059,0.0,0.0,0.0,0.0,0.0,0.0,0.0,0.0,0.0
1646243401.792038,8112,1646243401,791580420,,0.0,0.0,0.0,0.0,0.0,0.0,0.0,0.0,0.0,0.0,0.0,0.0,0.0,-0.03335520997643471,0.0037591024301946163,-0.013008194044232368,0.0,0.0,0.0,0.0,0.0,0.0,0.0,0.0,0.0,0.08974359184503555,0.3912820518016815,9.780256271362305,0.0,0.0,0.0,0.0,0.0,0.0,0.0,0.0,0.0
1646243401.7941458,8113,1646243401,793782182,,0.0,0.0,0.0,0.0,0.0,0.0,0.0,0.0,0.0,0.0,0.0,0.0,0.0,-0.024833092465996742,0.015477010980248451,0.010427623987197876,0.0,0.0,0.0,0.0,0.0,0.0,0.0,0.0,0.0,0.10948718339204788,0.3392307758331299,10.05128288269043,0.0,0.0,0.0,0.0,0.0,0.0,0.0,0.0,0.0
1646243401.7978756,8114,1646243401,795988993,,0.0,0.0,0.0,0.0,0.0,0.0,0.0,0.0,0.0,0.0,0.0,0.0,0.0,-0.016310978680849075,-0.01115459855645895,0.03066764585673809,0.0,0.0,0.0,0.0,0.0,0.0,0.0,0.0,0.0,-0.2441025674343109,0.19384616613388062,10.119487762451172,0.0,0.0,0.0,0.0,0.0,0.0,0.0,0.0,0.0
1646243401.7985184,8115,1646243401,798215367,,0.0,0.0,0.0,0.0,0.0,0.0,0.0,0.0,0.0,0.0,0.0,0.0,0.0,-0.028028886765241623,-0.007958807051181793,-0.024726100265979767,0.0,0.0,0.0,0.0,0.0,0.0,0.0,0.0,0.0,-0.3069230914115906,0.4451282024383545,10.458718299865723,0.0,0.0,0.0,0.0,0.0,0.0,0.0,0.0,0.0
1646243401.8008246,8116,1646243401,800472596,,0.0,0.0,0.0,0.0,0.0,0.0,0.0,0.0,0.0,0.0,0.0,0.0,0.0,-0.024833092465996742,0.0026938372757285833,0.013623417355120182,0.0,0.0,0.0,0.0,0.0,0.0,0.0,0.0,0.0,0.13641025125980377,-0.044871795922517776,9.70846176147461,0.0,0.0,0.0,0.0,0.0,0.0,0.0,0.0,0.0
1646243401.803467,8117,1646243401,802694363,,0.0,0.0,0.0,0.0,0.0,0.0,0.0,0.0,0.0,0.0,0.0,0.0,0.0,-0.055725760757923126,0.006954895332455635,0.006166566163301468,0.0,0.0,0.0,0.0,0.0,0.0,0.0,0.0,0.0,-0.22794872522354126,0.5492307543754578,10.361794471740723,0.0,0.0,0.0,0.0,0.0,0.0,0.0,0.0,0.0
1646243401.8054817,8118,1646243401,805008670,,0.0,0.0,0.0,0.0,0.0,0.0,0.0,0.0,0.0,0.0,0.0,0.0,0.0,-0.024833092465996742,-0.0015672193840146065,-0.018334513530135155,0.0,0.0,0.0,0.0,0.0,0.0,0.0,0.0,0.0,0.2387179583311081,-0.05564102530479431,9.54692268371582,0.0,0.0,0.0,0.0,0.0,0.0,0.0,0.0,0.0
1646243401.807738,8119,1646243401,807211315,,0.0,0.0,0.0,0.0,0.0,0.0,0.0,0.0,0.0,0.0,0.0,0.0,0.0,-0.04400784894824028,0.00588963134214282,0.035993970930576324,0.0,0.0,0.0,0.0,0.0,0.0,0.0,0.0,0.0,0.028717949986457825,0.4056410491466522,9.947179794311523,0.0,0.0,0.0,0.0,0.0,0.0,0.0,0.0,0.0
1646243401.8100202,8120,1646243401,809453287,,0.0,0.0,0.0,0.0,0.0,0.0,0.0,0.0,0.0,0.0,0.0,0.0,0.0,-0.055725760757923126,-0.020741978660225868,-0.030052425339818,0.0,0.0,0.0,0.0,0.0,0.0,0.0,0.0,0.0,0.22615385055541992,0.2853846251964569,9.523589134216309,0.0,0.0,0.0,0.0,0.0,0.0,0.0,0.0,0.0
1646243401.8121383,8121,1646243401,811654125,,0.0,0.0,0.0,0.0,0.0,0.0,0.0,0.0,0.0,0.0,0.0,0.0,0.0,-0.031224681064486504,0.009085424244403839,0.0232107974588871,0.0,0.0,0.0,0.0,0.0,0.0,0.0,0.0,0.0,0.3302564322948456,-0.1884615421295166,9.61153793334961,0.0,0.0,0.0,0.0,0.0,0.0,0.0,0.0,0.0
1646243401.8149748,8122,1646243401,813903207,,0.0,0.0,0.0,0.0,0.0,0.0,0.0,0.0,0.0,0.0,0.0,0.0,0.0,-0.055725760757923126,-0.007958807051181793,0.008297095075249672,0.0,0.0,0.0,0.0,0.0,0.0,0.0,0.0,0.0,0.38410258293151855,0.3266666829586029,9.69410228729248,0.0,0.0,0.0,0.0,0.0,0.0,0.0,0.0,0.0
1646243401.816347,8123,1646243401,816089025,,0.0,0.0,0.0,0.0,0.0,0.0,0.0,0.0,0.0,0.0,0.0,0.0,0.0,-0.037616267800331116,0.0016285729361698031,0.006166566163301468,0.0,0.0,0.0,0.0,0.0,0.0,0.0,0.0,0.0,0.016153845936059952,-0.2207692414522171,9.875385284423828,0.0,0.0,0.0,0.0,0.0,0.0,0.0,0.0,0.0
1646243401.8186874,8124,1646243401,818318730,,0.0,0.0,0.0,0.0,0.0,0.0,0.0,0.0,0.0,0.0,0.0,0.0,0.0,-0.03655100241303444,0.00588963134214282,0.01575394533574581,0.0,0.0,0.0,0.0,0.0,0.0,0.0,0.0,0.0,-0.1974359005689621,0.6246154308319092,10.306154251098633,0.0,0.0,0.0,0.0,0.0,0.0,0.0,0.0,0.0
1646243401.8212223,8125,1646243401,820610924,,0.0,0.0,0.0,0.0,0.0,0.0,0.0,0.0,0.0,0.0,0.0,0.0,0.0,-0.03974679112434387,0.0016285729361698031,0.01575394533574581,0.0,0.0,0.0,0.0,0.0,0.0,0.0,0.0,0.0,0.3302564322948456,-0.15256410837173462,9.722820281982422,0.0,0.0,0.0,0.0,0.0,0.0,0.0,0.0,0.0
1646243401.8233566,8126,1646243401,822893018,,0.0,0.0,0.0,0.0,0.0,0.0,0.0,0.0,0.0,0.0,0.0,0.0,0.0,-0.04613837972283363,0.017607539892196655,0.0019055086886510253,0.0,0.0,0.0,0.0,0.0,0.0,0.0,0.0,0.0,0.08974359184503555,-0.12923076748847961,9.721025466918945,0.0,0.0,0.0,0.0,0.0,0.0,0.0,0.0,0.0
1646243401.8254893,8127,1646243401,825146476,,0.0,0.0,0.0,0.0,0.0,0.0,0.0,0.0,0.0,0.0,0.0,0.0,0.0,-0.009919392876327038,-0.006893542595207691,-0.009812399744987488,0.0,0.0,0.0,0.0,0.0,0.0,0.0,0.0,0.0,0.31051284074783325,0.044871795922517776,9.597179412841797,0.0,0.0,0.0,0.0,0.0,0.0,0.0,0.0,0.0
1646243401.827743,8128,1646243401,827374047,,0.0,0.0,0.0,0.0,0.0,0.0,0.0,0.0,0.0,0.0,0.0,0.0,0.0,-0.03974679112434387,-0.0015672193840146065,0.02001500315964222,0.0,0.0,0.0,0.0,0.0,0.0,0.0,0.0,0.0,0.1794871836900711,-0.19923077523708344,9.423076629638672,0.0,0.0,0.0,0.0,0.0,0.0,0.0,0.0,0.0
1646243401.829989,8129,1646243401,829584805,,0.0,0.0,0.0,0.0,0.0,0.0,0.0,0.0,0.0,0.0,0.0,0.0,0.0,-0.016310978680849075,0.0005633095279335976,0.002970772795379162,0.0,0.0,0.0,0.0,0.0,0.0,0.0,0.0,0.0,-0.11307692527770996,0.2674359083175659,10.081794738769531,0.0,0.0,0.0,0.0,0.0,0.0,0.0,0.0,0.0
