Time,header.seq,header.stamp.secs,header.stamp.nsecs,header.frame_id,orientation.x,orientation.y,orientation.z,orientation.w,orientation_covariance_0,orientation_covariance_1,orientation_covariance_2,orientation_covariance_3,orientation_covariance_4,orientation_covariance_5,orientation_covariance_6,orientation_covariance_7,orientation_covariance_8,angular_velocity.x,angular_velocity.y,angular_velocity.z,angular_velocity_covariance_0,angular_velocity_covariance_1,angular_velocity_covariance_2,angular_velocity_covariance_3,angular_velocity_covariance_4,angular_velocity_covariance_5,angular_velocity_covariance_6,angular_velocity_covariance_7,angular_velocity_covariance_8,linear_acceleration.x,linear_acceleration.y,linear_acceleration.z,linear_acceleration_covariance_0,linear_acceleration_covariance_1,linear_acceleration_covariance_2,linear_acceleration_covariance_3,linear_acceleration_covariance_4,linear_acceleration_covariance_5,linear_acceleration_covariance_6,linear_acceleration_covariance_7,linear_acceleration_covariance_8
1646244223.4887145,4796,1646244223,487727512,,0.0,0.0,0.0,0.0,0.0,0.0,0.0,0.0,0.0,0.0,0.0,0.0,0.0,0.0103206317871809,-0.0015672193840146065,-0.03857453912496567,0.0,0.0,0.0,0.0,0.0,0.0,0.0,0.0,0.0,0.07717949151992798,0.2387179583311081,9.681538581848145,0.0,0.0,0.0,0.0,0.0,0.0,0.0,0.0,0.0
1646244223.4904983,4797,1646244223,490029244,,0.0,0.0,0.0,0.0,0.0,0.0,0.0,0.0,0.0,0.0,0.0,0.0,0.0,-0.004593071062117815,0.011215953156352043,-0.06840194761753082,0.0,0.0,0.0,0.0,0.0,0.0,0.0,0.0,0.0,0.4002564251422882,-0.4720512926578522,9.234615325927734,0.0,0.0,0.0,0.0,0.0,0.0,0.0,0.0,0.0
1646244223.492915,4798,1646244223,492331881,,0.0,0.0,0.0,0.0,0.0,0.0,0.0,0.0,0.0,0.0,0.0,0.0,0.0,-0.012049921788275242,-0.006893542595207691,-0.06201035529375076,0.0,0.0,0.0,0.0,0.0,0.0,0.0,0.0,0.0,0.05384615436196327,0.05743589997291565,9.710256576538086,0.0,0.0,0.0,0.0,0.0,0.0,0.0,0.0,0.0
1646244223.4947245,4799,1646244223,494496656,,0.0,0.0,0.0,0.0,0.0,0.0,0.0,0.0,0.0,0.0,0.0,0.0,0.0,-0.0024625419173389673,0.010150688700377941,-0.05881455913186073,0.0,0.0,0.0,0.0,0.0,0.0,0.0,0.0,0.0,-0.04307692497968674,-0.10410256683826447,9.8610258102417,0.0,0.0,0.0,0.0,0.0,0.0,0.0,0.0,0.0
1646244223.4968593,4800,1646244223,496639811,,0.0,0.0,0.0,0.0,0.0,0.0,0.0,0.0,0.0,0.0,0.0,0.0,0.0,-0.008854128420352936,0.0005633095279335976,-0.04922718182206154,0.0,0.0,0.0,0.0,0.0,0.0,0.0,0.0,0.0,-0.2710256576538086,-0.07717949151992798,9.929230690002441,0.0,0.0,0.0,0.0,0.0,0.0,0.0,0.0,0.0
1646244223.4989607,4801,1646244223,498779568,,0.0,0.0,0.0,0.0,0.0,0.0,0.0,0.0,0.0,0.0,0.0,0.0,0.0,0.011385894380509853,0.00588963134214282,-0.055618766695261,0.0,0.0,0.0,0.0,0.0,0.0,0.0,0.0,0.0,-0.4182051420211792,0.15076923370361328,10.29358959197998,0.0,0.0,0.0,0.0,0.0,0.0,0.0,0.0,0.0
1646244223.501237,4802,1646244223,500976675,,0.0,0.0,0.0,0.0,0.0,0.0,0.0,0.0,0.0,0.0,0.0,0.0,0.0,0.004994308575987816,-0.01648092083632946,-0.04816191643476486,0.0,0.0,0.0,0.0,0.0,0.0,0.0,0.0,0.0,0.003589743748307228,-0.25846153497695923,9.446410179138184,0.0,0.0,0.0,0.0,0.0,0.0,0.0,0.0,0.0
1646244223.5033205,4803,1646244223,503103565,,0.0,0.0,0.0,0.0,0.0,0.0,0.0,0.0,0.0,0.0,0.0,0.0,0.0,0.0007332512177526951,0.017607539892196655,-0.07479353249073029,0.0,0.0,0.0,0.0,0.0,0.0,0.0,0.0,0.0,-0.43974360823631287,0.1884615421295166,10.275640487670898,0.0,0.0,0.0,0.0,0.0,0.0,0.0,0.0,0.0
1646244223.505369,4804,1646244223,505223149,,0.0,0.0,0.0,0.0,0.0,0.0,0.0,0.0,0.0,0.0,0.0,0.0,0.0,0.004994308575987816,-0.0015672193840146065,-0.054553501307964325,0.0,0.0,0.0,0.0,0.0,0.0,0.0,0.0,0.0,-0.3679487407207489,0.028717949986457825,10.128461837768555,0.0,0.0,0.0,0.0,0.0,0.0,0.0,0.0,0.0
1646244223.5075626,4805,1646244223,507351314,,0.0,0.0,0.0,0.0,0.0,0.0,0.0,0.0,0.0,0.0,0.0,0.0,0.0,0.001798515673726797,0.010150688700377941,-0.057749297469854355,0.0,0.0,0.0,0.0,0.0,0.0,0.0,0.0,0.0,-0.06641025841236115,0.09153846651315689,9.902307510375977,0.0,0.0,0.0,0.0,0.0,0.0,0.0,0.0,0.0
1646244223.5097618,4806,1646244223,509484668,,0.0,0.0,0.0,0.0,0.0,0.0,0.0,0.0,0.0,0.0,0.0,0.0,0.0,-0.015245715156197548,0.010150688700377941,-0.0694672092795372,0.0,0.0,0.0,0.0,0.0,0.0,0.0,0.0,0.0,-0.10410256683826447,0.05025641247630119,9.69410228729248,0.0,0.0,0.0,0.0,0.0,0.0,0.0,0.0,0.0
1646244223.511909,4807,1646244223,511671496,,0.0,0.0,0.0,0.0,0.0,0.0,0.0,0.0,0.0,0.0,0.0,0.0,0.0,0.0028637798968702555,0.012281217612326145,-0.05348823964595795,0.0,0.0,0.0,0.0,0.0,0.0,0.0,0.0,0.0,0.10769230872392654,-0.23333333432674408,9.441025733947754,0.0,0.0,0.0,0.0,0.0,0.0,0.0,0.0,0.0
1646244223.5140796,4808,1646244223,513915537,,0.0,0.0,0.0,0.0,0.0,0.0,0.0,0.0,0.0,0.0,0.0,0.0,0.0,-0.0003320134710520506,0.01441174652427435,-0.07159774005413055,0.0,0.0,0.0,0.0,0.0,0.0,0.0,0.0,0.0,-0.001794871874153614,-0.05205128341913223,9.399744033813477,0.0,0.0,0.0,0.0,0.0,0.0,0.0,0.0,0.0
1646244223.5162208,4809,1646244223,516042620,,0.0,0.0,0.0,0.0,0.0,0.0,0.0,0.0,0.0,0.0,0.0,0.0,0.0,0.00925536546856165,0.00588963134214282,-0.04603138566017151,0.0,0.0,0.0,0.0,0.0,0.0,0.0,0.0,0.0,-0.19384616613388062,0.3033333420753479,10.087179183959961,0.0,0.0,0.0,0.0,0.0,0.0,0.0,0.0,0.0
1646244223.5183568,4810,1646244223,518188525,,0.0,0.0,0.0,0.0,0.0,0.0,0.0,0.0,0.0,0.0,0.0,0.0,0.0,-0.0035278063733130693,0.009085424244403839,-0.08225037902593613,0.0,0.0,0.0,0.0,0.0,0.0,0.0,0.0,0.0,-0.34282052516937256,0.12923076748847961,10.191282272338867,0.0,0.0,0.0,0.0,0.0,0.0,0.0,0.0,0.0
1646244223.5205827,4811,1646244223,520304016,,0.0,0.0,0.0,0.0,0.0,0.0,0.0,0.0,0.0,0.0,0.0,0.0,0.0,0.00925536546856165,0.018672803416848183,-0.02366083674132824,0.0,0.0,0.0,0.0,0.0,0.0,0.0,0.0,0.0,0.0735897421836853,-0.15974359214305878,9.523589134216309,0.0,0.0,0.0,0.0,0.0,0.0,0.0,0.0,0.0
1646244223.5228498,4812,1646244223,522457620,,0.0,0.0,0.0,0.0,0.0,0.0,0.0,0.0,0.0,0.0,0.0,0.0,0.0,-0.005658335518091917,-0.0047630127519369125,-0.047096651047468185,0.0,0.0,0.0,0.0,0.0,0.0,0.0,0.0,0.0,0.17589744925498962,0.00897435937076807,9.774871826171875,0.0,0.0,0.0,0.0,0.0,0.0,0.0,0.0,0.0
1646244223.524835,4813,1646244223,524592164,,0.0,0.0,0.0,0.0,0.0,0.0,0.0,0.0,0.0,0.0,0.0,0.0,0.0,0.001798515673726797,0.015477010980248451,-0.06840194761753082,0.0,0.0,0.0,0.0,0.0,0.0,0.0,0.0,0.0,-0.0735897421836853,-0.09512820839881897,9.896923065185547,0.0,0.0,0.0,0.0,0.0,0.0,0.0,0.0,0.0
1646244223.5270836,4814,1646244223,526776120,,0.0,0.0,0.0,0.0,0.0,0.0,0.0,0.0,0.0,0.0,0.0,0.0,0.0,-0.0067235990427434444,0.009085424244403839,-0.05029244348406792,0.0,0.0,0.0,0.0,0.0,0.0,0.0,0.0,0.0,-0.19564102590084076,0.4953846335411072,10.128461837768555,0.0,0.0,0.0,0.0,0.0,0.0,0.0,0.0,0.0
1646244223.529113,4815,1646244223,528901733,,0.0,0.0,0.0,0.0,0.0,0.0,0.0,0.0,0.0,0.0,0.0,0.0,0.0,-0.0077888634987175465,0.009085424244403839,-0.01087766420096159,0.0,0.0,0.0,0.0,0.0,0.0,0.0,0.0,0.0,0.3212820589542389,-0.16333334147930145,9.530769348144531,0.0,0.0,0.0,0.0,0.0,0.0,0.0,0.0,0.0
1646244223.5312517,4816,1646244223,531030190,,0.0,0.0,0.0,0.0,0.0,0.0,0.0,0.0,0.0,0.0,0.0,0.0,0.0,0.015646953135728836,0.008020159788429737,-0.031117688864469528,0.0,0.0,0.0,0.0,0.0,0.0,0.0,0.0,0.0,0.4917948842048645,0.2064102590084076,9.29025650024414,0.0,0.0,0.0,0.0,0.0,0.0,0.0,0.0,0.0
1646244223.533697,4817,1646244223,533241900,,0.0,0.0,0.0,0.0,0.0,0.0,0.0,0.0,0.0,0.0,0.0,0.0,0.0,-0.008854128420352936,-0.0026324838399887085,-0.04603138566017151,0.0,0.0,0.0,0.0,0.0,0.0,0.0,0.0,0.0,0.28179487586021423,-0.09333333373069763,9.51282024383545,0.0,0.0,0.0,0.0,0.0,0.0,0.0,0.0,0.0
1646244223.53598,4818,1646244223,535499240,,0.0,0.0,0.0,0.0,0.0,0.0,0.0,0.0,0.0,0.0,0.0,0.0,0.0,0.006059573031961918,-0.0015672193840146065,-0.027921894565224648,0.0,0.0,0.0,0.0,0.0,0.0,0.0,0.0,0.0,0.29615384340286255,-0.19923077523708344,9.423076629638672,0.0,0.0,0.0,0.0,0.0,0.0,0.0,0.0,0.0
1646244223.538105,4819,1646244223,537721376,,0.0,0.0,0.0,0.0,0.0,0.0,0.0,0.0,0.0,0.0,0.0,0.0,0.0,0.0028637798968702555,0.00588963134214282,0.002970772795379162,0.0,0.0,0.0,0.0,0.0,0.0,0.0,0.0,0.0,-0.17230769991874695,0.3176923394203186,10.09615421295166,0.0,0.0,0.0,0.0,0.0,0.0,0.0,0.0,0.0
1646244223.540398,4820,1646244223,539972240,,0.0,0.0,0.0,0.0,0.0,0.0,0.0,0.0,0.0,0.0,0.0,0.0,0.0,0.0007332512177526951,-0.015415656380355358,0.011492888443171978,0.0,0.0,0.0,0.0,0.0,0.0,0.0,0.0,0.0,-0.22256410121917725,-0.044871795922517776,10.133846282958984,0.0,0.0,0.0,0.0,0.0,0.0,0.0,0.0,0.0
1646244223.5426438,4821,1646244223,542182320,,0.0,0.0,0.0,0.0,0.0,0.0,0.0,0.0,0.0,0.0,0.0,0.0,0.0,0.00712483748793602,-0.015415656380355358,-0.018334513530135155,0.0,0.0,0.0,0.0,0.0,0.0,0.0,0.0,0.0,0.1794871836900711,0.15794873237609863,9.685128211975098,0.0,0.0,0.0,0.0,0.0,0.0,0.0,0.0,0.0
1646244223.54488,4822,1646244223,544445124,,0.0,0.0,0.0,0.0,0.0,0.0,0.0,0.0,0.0,0.0,0.0,0.0,0.0,-0.013115186244249344,-0.0036977482959628105,0.035993970930576324,0.0,0.0,0.0,0.0,0.0,0.0,0.0,0.0,0.0,-0.19025641679763794,0.1471794843673706,10.001025199890137,0.0,0.0,0.0,0.0,0.0,0.0,0.0,0.0,0.0
1646244223.5470874,4823,1646244223,546684592,,0.0,0.0,0.0,0.0,0.0,0.0,0.0,0.0,0.0,0.0,0.0,0.0,0.0,-0.008854128420352936,0.01441174652427435,0.006166566163301468,0.0,0.0,0.0,0.0,0.0,0.0,0.0,0.0,0.0,0.3769230842590332,0.2064102590084076,9.25615406036377,0.0,0.0,0.0,0.0,0.0,0.0,0.0,0.0,0.0
1646244223.5494053,4824,1646244223,548990419,,0.0,0.0,0.0,0.0,0.0,0.0,0.0,0.0,0.0,0.0,0.0,0.0,0.0,0.019908009096980095,-0.0036977482959628105,0.021080268546938896,0.0,0.0,0.0,0.0,0.0,0.0,0.0,0.0,0.0,-0.22794872522354126,0.30153846740722656,10.202051162719727,0.0,0.0,0.0,0.0,0.0,0.0,0.0,0.0,0.0
1646244223.5516248,4825,1646244223,551194611,,0.0,0.0,0.0,0.0,0.0,0.0,0.0,0.0,0.0,0.0,0.0,0.0,0.0,0.013516423292458057,-0.04204726591706276,-0.01087766420096159,0.0,0.0,0.0,0.0,0.0,0.0,0.0,0.0,0.0,0.08076923340559006,0.12564103305339813,9.64923095703125,0.0,0.0,0.0,0.0,0.0,0.0,0.0,0.0,0.0
1646244223.5544043,4826,1646244223,553472705,,0.0,0.0,0.0,0.0,0.0,0.0,0.0,0.0,0.0,0.0,0.0,0.0,0.0,0.00712483748793602,0.00588963134214282,-0.00022502047067973763,0.0,0.0,0.0,0.0,0.0,0.0,0.0,0.0,0.0,0.4792307913303375,0.03769230842590332,9.292051315307617,0.0,0.0,0.0,0.0,0.0,0.0,0.0,0.0,0.0
1646244223.556018,4827,1646244223,555702731,,0.0,0.0,0.0,0.0,0.0,0.0,0.0,0.0,0.0,0.0,0.0,0.0,0.0,0.003929044120013714,-0.0047630127519369125,0.04451608657836914,0.0,0.0,0.0,0.0,0.0,0.0,0.0,0.0,0.0,0.41102564334869385,-0.1148717999458313,9.324358940124512,0.0,0.0,0.0,0.0,0.0,0.0,0.0,0.0,0.0
1646244223.5582511,4828,1646244223,557938326,,0.0,0.0,0.0,0.0,0.0,0.0,0.0,0.0,0.0,0.0,0.0,0.0,0.0,-0.02163730002939701,-0.0015672193840146065,0.018949739634990692,0.0,0.0,0.0,0.0,0.0,0.0,0.0,0.0,0.0,0.19923077523708344,0.1705128252506256,9.828718185424805,0.0,0.0,0.0,0.0,0.0,0.0,0.0,0.0,0.0
1646244223.5615733,4829,1646244223,560178248,,0.0,0.0,0.0,0.0,0.0,0.0,0.0,0.0,0.0,0.0,0.0,0.0,0.0,0.008190101943910122,-0.03245988488197327,0.05516872555017471,0.0,0.0,0.0,0.0,0.0,0.0,0.0,0.0,0.0,-0.1561538577079773,0.2530769407749176,10.044102668762207,0.0,0.0,0.0,0.0,0.0,0.0,0.0,0.0,0.0
1646244223.562802,4830,1646244223,562413121,,0.0,0.0,0.0,0.0,0.0,0.0,0.0,0.0,0.0,0.0,0.0,0.0,0.0,0.012451158836483955,-0.005828278139233589,0.011492888443171978,0.0,0.0,0.0,0.0,0.0,0.0,0.0,0.0,0.0,-0.20820513367652893,0.36974361538887024,10.29897403717041,0.0,0.0,0.0,0.0,0.0,0.0,0.0,0.0,0.0
1646244223.5649092,4831,1646244223,564626268,,0.0,0.0,0.0,0.0,0.0,0.0,0.0,0.0,0.0,0.0,0.0,0.0,0.0,-0.014180450700223446,0.01654227450489998,0.02640658989548683,0.0,0.0,0.0,0.0,0.0,0.0,0.0,0.0,0.0,-0.21358974277973175,0.2620512843132019,10.239744186401367,0.0,0.0,0.0,0.0,0.0,0.0,0.0,0.0,0.0
1646244223.5672078,4832,1646244223,566803833,,0.0,0.0,0.0,0.0,0.0,0.0,0.0,0.0,0.0,0.0,0.0,0.0,0.0,0.0028637798968702555,-0.026068301871418953,0.04025502875447273,0.0,0.0,0.0,0.0,0.0,0.0,0.0,0.0,0.0,0.12923076748847961,0.2530769407749176,9.825127601623535,0.0,0.0,0.0,0.0,0.0,0.0,0.0,0.0,0.0
1646244223.5694563,4833,1646244223,569036202,,0.0,0.0,0.0,0.0,0.0,0.0,0.0,0.0,0.0,0.0,0.0,0.0,0.0,0.003929044120013714,-0.02393777295947075,0.018949739634990692,0.0,0.0,0.0,0.0,0.0,0.0,0.0,0.0,0.0,0.2943589687347412,-0.03589743748307228,9.318974494934082,0.0,0.0,0.0,0.0,0.0,0.0,0.0,0.0,0.0
1646244223.5716534,4834,1646244223,571241940,,0.0,0.0,0.0,0.0,0.0,0.0,0.0,0.0,0.0,0.0,0.0,0.0,0.0,-0.013115186244249344,-0.009024071507155895,0.03173290938138962,0.0,0.0,0.0,0.0,0.0,0.0,0.0,0.0,0.0,0.19923077523708344,0.21000000834465027,9.692307472229004,0.0,0.0,0.0,0.0,0.0,0.0,0.0,0.0,0.0
1646244223.573846,4835,1646244223,573466381,,0.0,0.0,0.0,0.0,0.0,0.0,0.0,0.0,0.0,0.0,0.0,0.0,0.0,0.019908009096980095,-0.021807242184877396,0.046646613627672195,0.0,0.0,0.0,0.0,0.0,0.0,0.0,0.0,0.0,0.15076923370361328,0.22794872522354126,9.88974380493164,0.0,0.0,0.0,0.0,0.0,0.0,0.0,0.0,0.0
1646244223.5761414,4836,1646244223,575688947,,0.0,0.0,0.0,0.0,0.0,0.0,0.0,0.0,0.0,0.0,0.0,0.0,0.0,-0.01098465733230114,0.0026938372757285833,0.0604950487613678,0.0,0.0,0.0,0.0,0.0,0.0,0.0,0.0,0.0,-0.012564103119075298,0.10051282495260239,10.135641098022461,0.0,0.0,0.0,0.0,0.0,0.0,0.0,0.0,0.0
1646244223.5783107,4837,1646244223,577929473,,0.0,0.0,0.0,0.0,0.0,0.0,0.0,0.0,0.0,0.0,0.0,0.0,0.0,0.00712483748793602,-0.025003038346767426,0.021080268546938896,0.0,0.0,0.0,0.0,0.0,0.0,0.0,0.0,0.0,0.4415384829044342,0.24051281809806824,9.19153881072998,0.0,0.0,0.0,0.0,0.0,0.0,0.0,0.0,0.0
1646244223.5805154,4838,1646244223,580145162,,0.0,0.0,0.0,0.0,0.0,0.0,0.0,0.0,0.0,0.0,0.0,0.0,0.0,0.006059573031961918,0.017607539892196655,0.03812449797987938,0.0,0.0,0.0,0.0,0.0,0.0,0.0,0.0,0.0,0.3769230842590332,-0.005384615622460842,9.444615364074707,0.0,0.0,0.0,0.0,0.0,0.0,0.0,0.0,0.0
1646244223.5828176,4839,1646244223,582441429,,0.0,0.0,0.0,0.0,0.0,0.0,0.0,0.0,0.0,0.0,0.0,0.0,0.0,-0.0013972773449495435,-0.005828278139233589,0.043450821191072464,0.0,0.0,0.0,0.0,0.0,0.0,0.0,0.0,0.0,0.028717949986457825,0.5097435712814331,10.162564277648926,0.0,0.0,0.0,0.0,0.0,0.0,0.0,0.0,0.0
1646244223.5850356,4840,1646244223,584663244,,0.0,0.0,0.0,0.0,0.0,0.0,0.0,0.0,0.0,0.0,0.0,0.0,0.0,0.008190101943910122,0.018672803416848183,0.03066764585673809,0.0,0.0,0.0,0.0,0.0,0.0,0.0,0.0,0.0,-0.05025641247630119,0.28358975052833557,10.352821350097656,0.0,0.0,0.0,0.0,0.0,0.0,0.0,0.0,0.0
1646244223.5873148,4841,1646244223,586881556,,0.0,0.0,0.0,0.0,0.0,0.0,0.0,0.0,0.0,0.0,0.0,0.0,0.0,0.02097327448427677,-0.007958807051181793,0.0604950487613678,0.0,0.0,0.0,0.0,0.0,0.0,0.0,0.0,0.0,-0.10769230872392654,0.2674359083175659,10.151795387268066,0.0,0.0,0.0,0.0,0.0,0.0,0.0,0.0,0.0
1646244223.5894105,4842,1646244223,589055170,,0.0,0.0,0.0,0.0,0.0,0.0,0.0,0.0,0.0,0.0,0.0,0.0,0.0,-0.0024625419173389673,0.00588963134214282,0.02640658989548683,0.0,0.0,0.0,0.0,0.0,0.0,0.0,0.0,0.0,0.23333333432674408,0.17589744925498962,9.756922721862793,0.0,0.0,0.0,0.0,0.0,0.0,0.0,0.0,0.0
1646244223.5917635,4843,1646244223,591326196,,0.0,0.0,0.0,0.0,0.0,0.0,0.0,0.0,0.0,0.0,0.0,0.0,0.0,0.0103206317871809,-0.010089334100484848,0.05623399093747139,0.0,0.0,0.0,0.0,0.0,0.0,0.0,0.0,0.0,0.29615384340286255,-0.11666666716337204,9.345897674560547,0.0,0.0,0.0,0.0,0.0,0.0,0.0,0.0,0.0
1646244223.5938818,4844,1646244223,593537932,,0.0,0.0,0.0,0.0,0.0,0.0,0.0,0.0,0.0,0.0,0.0,0.0,0.0,0.00712483748793602,-0.0015672193840146065,0.04558135196566582,0.0,0.0,0.0,0.0,0.0,0.0,0.0,0.0,0.0,0.5456410050392151,0.26384615898132324,9.371026039123535,0.0,0.0,0.0,0.0,0.0,0.0,0.0,0.0,0.0
1646244223.5962481,4845,1646244223,595801588,,0.0,0.0,0.0,0.0,0.0,0.0,0.0,0.0,0.0,0.0,0.0,0.0,0.0,0.024169068783521652,-0.020741978660225868,0.03173290938138962,0.0,0.0,0.0,0.0,0.0,0.0,0.0,0.0,0.0,0.2028205245733261,-0.11307692527770996,9.428462028503418,0.0,0.0,0.0,0.0,0.0,0.0,0.0,0.0,0.0
1646244223.5983667,4846,1646244223,598040877,,0.0,0.0,0.0,0.0,0.0,0.0,0.0,0.0,0.0,0.0,0.0,0.0,0.0,0.018842745572328568,0.0026938372757285833,0.03812449797987938,0.0,0.0,0.0,0.0,0.0,0.0,0.0,0.0,0.0,-0.03589743748307228,0.5707692503929138,10.334872245788574,0.0,0.0,0.0,0.0,0.0,0.0,0.0,0.0,0.0
1646244223.6007395,4847,1646244223,600319068,,0.0,0.0,0.0,0.0,0.0,0.0,0.0,0.0,0.0,0.0,0.0,0.0,0.0,0.0007332512177526951,0.02293386124074459,0.05516872555017471,0.0,0.0,0.0,0.0,0.0,0.0,0.0,0.0,0.0,-0.06282051652669907,0.012564103119075298,9.993846893310547,0.0,0.0,0.0,0.0,0.0,0.0,0.0,0.0,0.0
1646244223.6038468,4848,1646244223,602534844,,0.0,0.0,0.0,0.0,0.0,0.0,0.0,0.0,0.0,0.0,0.0,0.0,0.0,0.0103206317871809,-0.01648092083632946,0.046646613627672195,0.0,0.0,0.0,0.0,0.0,0.0,0.0,0.0,0.0,-0.2674359083175659,0.10948718339204788,10.10333251953125,0.0,0.0,0.0,0.0,0.0,0.0,0.0,0.0,0.0
1646244223.6050649,4849,1646244223,604755743,,0.0,0.0,0.0,0.0,0.0,0.0,0.0,0.0,0.0,0.0,0.0,0.0,0.0,0.018842745572328568,-0.017546184360980988,0.046646613627672195,0.0,0.0,0.0,0.0,0.0,0.0,0.0,0.0,0.0,0.12025640904903412,0.1238461583852768,9.69410228729248,0.0,0.0,0.0,0.0,0.0,0.0,0.0,0.0,0.0
1646244223.6073093,4850,1646244223,606983646,,0.0,0.0,0.0,0.0,0.0,0.0,0.0,0.0,0.0,0.0,0.0,0.0,0.0,0.004994308575987816,-0.0026324838399887085,0.06582137197256088,0.0,0.0,0.0,0.0,0.0,0.0,0.0,0.0,0.0,-0.19923077523708344,-0.07538461685180664,10.189486503601074,0.0,0.0,0.0,0.0,0.0,0.0,0.0,0.0,0.0
1646244223.6096058,4851,1646244223,609209748,,0.0,0.0,0.0,0.0,0.0,0.0,0.0,0.0,0.0,0.0,0.0,0.0,0.0,0.0103206317871809,-0.0047630127519369125,0.039189763367176056,0.0,0.0,0.0,0.0,0.0,0.0,0.0,0.0,0.0,-0.16333334147930145,0.39666667580604553,10.173333168029785,0.0,0.0,0.0,0.0,0.0,0.0,0.0,0.0,0.0
1646244223.6119323,4852,1646244223,611439855,,0.0,0.0,0.0,0.0,0.0,0.0,0.0,0.0,0.0,0.0,0.0,0.0,0.0,0.003929044120013714,-0.02393777295947075,0.04238555580377579,0.0,0.0,0.0,0.0,0.0,0.0,0.0,0.0,0.0,0.10230769217014313,-0.11128205060958862,9.584615707397461,0.0,0.0,0.0,0.0,0.0,0.0,0.0,0.0,0.0
1646244223.614137,4853,1646244223,613680735,,0.0,0.0,0.0,0.0,0.0,0.0,0.0,0.0,0.0,0.0,0.0,0.0,0.0,0.001798515673726797,-0.01115459855645895,0.06262557953596115,0.0,0.0,0.0,0.0,0.0,0.0,0.0,0.0,0.0,0.12564103305339813,-0.12743589282035828,9.767691612243652,0.0,0.0,0.0,0.0,0.0,0.0,0.0,0.0,0.0
1646244223.6163108,4854,1646244223,615893433,,0.0,0.0,0.0,0.0,0.0,0.0,0.0,0.0,0.0,0.0,0.0,0.0,0.0,0.004994308575987816,-0.0005019548698328435,0.025341326370835304,0.0,0.0,0.0,0.0,0.0,0.0,0.0,0.0,0.0,0.42000001668930054,-0.046666666865348816,9.419486999511719,0.0,0.0,0.0,0.0,0.0,0.0,0.0,0.0,0.0
1646244223.618448,4855,1646244223,618130301,,0.0,0.0,0.0,0.0,0.0,0.0,0.0,0.0,0.0,0.0,0.0,0.0,0.0,-0.013115186244249344,-0.01115459855645895,0.028537116944789886,0.0,0.0,0.0,0.0,0.0,0.0,0.0,0.0,0.0,0.023333333432674408,-0.05743589997291565,9.843076705932617,0.0,0.0,0.0,0.0,0.0,0.0,0.0,0.0,0.0
1646244223.6207998,4856,1646244223,620388491,,0.0,0.0,0.0,0.0,0.0,0.0,0.0,0.0,0.0,0.0,0.0,0.0,0.0,0.0028637798968702555,-0.005828278139233589,0.046646613627672195,0.0,0.0,0.0,0.0,0.0,0.0,0.0,0.0,0.0,-0.19025641679763794,0.08435897529125214,10.011795043945312,0.0,0.0,0.0,0.0,0.0,0.0,0.0,0.0,0.0
1646244223.6231093,4857,1646244223,622623823,,0.0,0.0,0.0,0.0,0.0,0.0,0.0,0.0,0.0,0.0,0.0,0.0,0.0,-0.03868153318762779,-0.005828278139233589,0.032798174768686295,0.0,0.0,0.0,0.0,0.0,0.0,0.0,0.0,0.0,-0.24230769276618958,-0.14000000059604645,10.133846282958984,0.0,0.0,0.0,0.0,0.0,0.0,0.0,0.0,0.0
1646244223.6252832,4858,1646244223,624825697,,0.0,0.0,0.0,0.0,0.0,0.0,0.0,0.0,0.0,0.0,0.0,0.0,0.0,-0.016310978680849075,0.0016285729361698031,0.03492870554327965,0.0,0.0,0.0,0.0,0.0,0.0,0.0,0.0,0.0,-0.2674359083175659,0.3356410562992096,9.970513343811035,0.0,0.0,0.0,0.0,0.0,0.0,0.0,0.0,0.0
1646244223.6275349,4859,1646244223,627078824,,0.0,0.0,0.0,0.0,0.0,0.0,0.0,0.0,0.0,0.0,0.0,0.0,0.0,-0.028028886765241623,0.015477010980248451,0.06688663363456726,0.0,0.0,0.0,0.0,0.0,0.0,0.0,0.0,0.0,0.12923076748847961,-0.28717949986457825,9.390769004821777,0.0,0.0,0.0,0.0,0.0,0.0,0.0,0.0,0.0
1646244223.629704,4860,1646244223,629262756,,0.0,0.0,0.0,0.0,0.0,0.0,0.0,0.0,0.0,0.0,0.0,0.0,0.0,-0.024833092465996742,0.011215953156352043,0.046646613627672195,0.0,0.0,0.0,0.0,0.0,0.0,0.0,0.0,0.0,0.17230769991874695,-0.03769230842590332,9.498461723327637,0.0,0.0,0.0,0.0,0.0,0.0,0.0,0.0,0.0
1646244223.6318772,4861,1646244223,631442063,,0.0,0.0,0.0,0.0,0.0,0.0,0.0,0.0,0.0,0.0,0.0,0.0,0.0,-0.034420475363731384,0.008020159788429737,0.04558135196566582,0.0,0.0,0.0,0.0,0.0,0.0,0.0,0.0,0.0,-0.11307692527770996,-0.18666666746139526,9.803589820861816,0.0,0.0,0.0,0.0,0.0,0.0,0.0,0.0,0.0
1646244223.6340253,4862,1646244223,633665030,,0.0,0.0,0.0,0.0,0.0,0.0,0.0,0.0,0.0,0.0,0.0,0.0,0.0,-0.0429425872862339,0.0005633095279335976,0.057299256324768066,0.0,0.0,0.0,0.0,0.0,0.0,0.0,0.0,0.0,0.10948718339204788,-0.032307691872119904,9.717435836791992,0.0,0.0,0.0,0.0,0.0,0.0,0.0,0.0,0.0
1646244223.6361759,4863,1646244223,635861197,,0.0,0.0,0.0,0.0,0.0,0.0,0.0,0.0,0.0,0.0,0.0,0.0,0.0,-0.023767828941345215,0.0026938372757285833,0.017884474247694016,0.0,0.0,0.0,0.0,0.0,0.0,0.0,0.0,0.0,0.06641025841236115,-0.16333334147930145,9.588204383850098,0.0,0.0,0.0,0.0,0.0,0.0,0.0,0.0,0.0
1646244223.6384625,4864,1646244223,638086345,,0.0,0.0,0.0,0.0,0.0,0.0,0.0,0.0,0.0,0.0,0.0,0.0,0.0,-0.015245715156197548,0.00588963134214282,0.035993970930576324,0.0,0.0,0.0,0.0,0.0,0.0,0.0,0.0,0.0,0.21000000834465027,-0.34641027450561523,9.225641250610352,0.0,0.0,0.0,0.0,0.0,0.0,0.0,0.0,0.0
1646244223.640823,4865,1646244223,640372210,,0.0,0.0,0.0,0.0,0.0,0.0,0.0,0.0,0.0,0.0,0.0,0.0,0.0,-0.04081205651164055,0.015477010980248451,0.022145532071590424,0.0,0.0,0.0,0.0,0.0,0.0,0.0,0.0,0.0,0.032307691872119904,-0.02153846248984337,9.816153526306152,0.0,0.0,0.0,0.0,0.0,0.0,0.0,0.0,0.0
1646244223.643077,4866,1646244223,642656888,,0.0,0.0,0.0,0.0,0.0,0.0,0.0,0.0,0.0,0.0,0.0,0.0,0.0,-0.014180450700223446,-0.007958807051181793,0.00723183061927557,0.0,0.0,0.0,0.0,0.0,0.0,0.0,0.0,0.0,-0.05923077091574669,-0.18128205835819244,9.554102897644043,0.0,0.0,0.0,0.0,0.0,0.0,0.0,0.0,0.0
1646244223.646764,4867,1646244223,644884946,,0.0,0.0,0.0,0.0,0.0,0.0,0.0,0.0,0.0,0.0,0.0,0.0,0.0,-0.031224681064486504,0.011215953156352043,0.04132029414176941,0.0,0.0,0.0,0.0,0.0,0.0,0.0,0.0,0.0,-0.24589744210243225,0.27820512652397156,10.162564277648926,0.0,0.0,0.0,0.0,0.0,0.0,0.0,0.0,0.0
1646244223.647426,4868,1646244223,647085800,,0.0,0.0,0.0,0.0,0.0,0.0,0.0,0.0,0.0,0.0,0.0,0.0,0.0,0.0103206317871809,0.01654227450489998,-0.004486078396439552,0.0,0.0,0.0,0.0,0.0,0.0,0.0,0.0,0.0,0.010769231244921684,-0.17769230902194977,9.756922721862793,0.0,0.0,0.0,0.0,0.0,0.0,0.0,0.0,0.0
1646244223.649715,4869,1646244223,649289928,,0.0,0.0,0.0,0.0,0.0,0.0,0.0,0.0,0.0,0.0,0.0,0.0,0.0,-0.0013972773449495435,0.0016285729361698031,0.01575394533574581,0.0,0.0,0.0,0.0,0.0,0.0,0.0,0.0,0.0,0.18666666746139526,0.016153845936059952,9.293846130371094,0.0,0.0,0.0,0.0,0.0,0.0,0.0,0.0,0.0
1646244223.6519494,4870,1646244223,651526672,,0.0,0.0,0.0,0.0,0.0,0.0,0.0,0.0,0.0,0.0,0.0,0.0,0.0,-0.015245715156197548,0.013346482068300247,0.008297095075249672,0.0,0.0,0.0,0.0,0.0,0.0,0.0,0.0,0.0,0.15076923370361328,-0.0825641080737114,9.588204383850098,0.0,0.0,0.0,0.0,0.0,0.0,0.0,0.0,0.0
1646244223.6545124,4871,1646244223,653908438,,0.0,0.0,0.0,0.0,0.0,0.0,0.0,0.0,0.0,0.0,0.0,0.0,0.0,-0.0024625419173389673,0.008020159788429737,-0.018334513530135155,0.0,0.0,0.0,0.0,0.0,0.0,0.0,0.0,0.0,0.1328205168247223,-0.47564104199409485,9.10897445678711,0.0,0.0,0.0,0.0,0.0,0.0,0.0,0.0,0.0
1646244223.6567261,4872,1646244223,656257725,,0.0,0.0,0.0,0.0,0.0,0.0,0.0,0.0,0.0,0.0,0.0,0.0,0.0,0.00925536546856165,0.004824366886168718,-0.00022502047067973763,0.0,0.0,0.0,0.0,0.0,0.0,0.0,0.0,0.0,-0.28717949986457825,-0.08615384995937347,10.130256652832031,0.0,0.0,0.0,0.0,0.0,0.0,0.0,0.0,0.0
1646244223.6590939,4873,1646244223,658553287,,0.0,0.0,0.0,0.0,0.0,0.0,0.0,0.0,0.0,0.0,0.0,0.0,0.0,-0.0013972773449495435,0.017607539892196655,-0.051357708871364594,0.0,0.0,0.0,0.0,0.0,0.0,0.0,0.0,0.0,-0.16871795058250427,-0.21358974277973175,9.792820930480957,0.0,0.0,0.0,0.0,0.0,0.0,0.0,0.0,0.0
1646244223.6613204,4874,1646244223,660832481,,0.0,0.0,0.0,0.0,0.0,0.0,0.0,0.0,0.0,0.0,0.0,0.0,0.0,0.02843012474477291,-0.0047630127519369125,-0.018334513530135155,0.0,0.0,0.0,0.0,0.0,0.0,0.0,0.0,0.0,-0.19025641679763794,0.22794872522354126,10.185897827148438,0.0,0.0,0.0,0.0,0.0,0.0,0.0,0.0,0.0
1646244223.663519,4875,1646244223,663099955,,0.0,0.0,0.0,0.0,0.0,0.0,0.0,0.0,0.0,0.0,0.0,0.0,0.0,-0.005658335518091917,-0.0005019548698328435,-0.047096651047468185,0.0,0.0,0.0,0.0,0.0,0.0,0.0,0.0,0.0,-0.06461538374423981,-0.2997435927391052,9.692307472229004,0.0,0.0,0.0,0.0,0.0,0.0,0.0,0.0,0.0
1646244223.6657107,4876,1646244223,665306750,,0.0,0.0,0.0,0.0,0.0,0.0,0.0,0.0,0.0,0.0,0.0,0.0,0.0,-0.0013972773449495435,-0.01115459855645895,-0.031117688864469528,0.0,0.0,0.0,0.0,0.0,0.0,0.0,0.0,0.0,-0.08794872462749481,-0.3571794927120209,10.074614524841309,0.0,0.0,0.0,0.0,0.0,0.0,0.0,0.0,0.0
1646244223.6680777,4877,1646244223,667574529,,0.0,0.0,0.0,0.0,0.0,0.0,0.0,0.0,0.0,0.0,0.0,0.0,0.0,0.0103206317871809,0.006954895332455635,-0.04603138566017151,0.0,0.0,0.0,0.0,0.0,0.0,0.0,0.0,0.0,0.22256410121917725,-0.25846153497695923,9.489486694335938,0.0,0.0,0.0,0.0,0.0,0.0,0.0,0.0,0.0
1646244223.6700935,4878,1646244223,669777219,,0.0,0.0,0.0,0.0,0.0,0.0,0.0,0.0,0.0,0.0,0.0,0.0,0.0,0.02843012474477291,-0.0015672193840146065,-0.05242297425866127,0.0,0.0,0.0,0.0,0.0,0.0,0.0,0.0,0.0,0.15076923370361328,-0.43794873356819153,9.467948913574219,0.0,0.0,0.0,0.0,0.0,0.0,0.0,0.0,0.0
1646244223.6723735,4879,1646244223,671992718,,0.0,0.0,0.0,0.0,0.0,0.0,0.0,0.0,0.0,0.0,0.0,0.0,0.0,0.001798515673726797,0.004824366886168718,-0.057749297469854355,0.0,0.0,0.0,0.0,0.0,0.0,0.0,0.0,0.0,-0.05025641247630119,0.2710256576538086,9.95974349975586,0.0,0.0,0.0,0.0,0.0,0.0,0.0,0.0,0.0
1646244223.6745331,4880,1646244223,674262410,,0.0,0.0,0.0,0.0,0.0,0.0,0.0,0.0,0.0,0.0,0.0,0.0,0.0,0.004994308575987816,0.004824366886168718,-0.03431348130106926,0.0,0.0,0.0,0.0,0.0,0.0,0.0,0.0,0.0,0.36076924204826355,-0.3302564322948456,9.180768966674805,0.0,0.0,0.0,0.0,0.0,0.0,0.0,0.0,0.0
1646244223.6767876,4881,1646244223,676530332,,0.0,0.0,0.0,0.0,0.0,0.0,0.0,0.0,0.0,0.0,0.0,0.0,0.0,-0.005658335518091917,0.015477010980248451,-0.006616605911403894,0.0,0.0,0.0,0.0,0.0,0.0,0.0,0.0,0.0,0.1884615421295166,-0.44692307710647583,9.511025428771973,0.0,0.0,0.0,0.0,0.0,0.0,0.0,0.0,0.0
1646244223.6791153,4882,1646244223,678761067,,0.0,0.0,0.0,0.0,0.0,0.0,0.0,0.0,0.0,0.0,0.0,0.0,0.0,0.0007332512177526951,0.015477010980248451,-0.05668403208255768,0.0,0.0,0.0,0.0,0.0,0.0,0.0,0.0,0.0,0.18128205835819244,-0.1238461583852768,9.505640983581543,0.0,0.0,0.0,0.0,0.0,0.0,0.0,0.0,0.0
1646244223.6814117,4883,1646244223,681035983,,0.0,0.0,0.0,0.0,0.0,0.0,0.0,0.0,0.0,0.0,0.0,0.0,0.0,0.01777748018503189,-0.0015672193840146065,-0.03431348130106926,0.0,0.0,0.0,0.0,0.0,0.0,0.0,0.0,0.0,-0.10769230872392654,-0.1561538577079773,9.848461151123047,0.0,0.0,0.0,0.0,0.0,0.0,0.0,0.0,0.0
1646244223.6836872,4884,1646244223,683252643,,0.0,0.0,0.0,0.0,0.0,0.0,0.0,0.0,0.0,0.0,0.0,0.0,0.0,-0.0067235990427434444,-0.017546184360980988,-0.07053247094154358,0.0,0.0,0.0,0.0,0.0,0.0,0.0,0.0,0.0,-0.2746153771877289,0.028717949986457825,10.517949104309082,0.0,0.0,0.0,0.0,0.0,0.0,0.0,0.0,0.0
1646244223.686503,4885,1646244223,685536538,,0.0,0.0,0.0,0.0,0.0,0.0,0.0,0.0,0.0,0.0,0.0,0.0,0.0,-0.008854128420352936,-0.009024071507155895,-0.06307561695575714,0.0,0.0,0.0,0.0,0.0,0.0,0.0,0.0,0.0,-0.29615384340286255,-0.20102564990520477,9.993846893310547,0.0,0.0,0.0,0.0,0.0,0.0,0.0,0.0,0.0
1646244223.689121,4886,1646244223,687755339,,0.0,0.0,0.0,0.0,0.0,0.0,0.0,0.0,0.0,0.0,0.0,0.0,0.0,-0.01098465733230114,0.004824366886168718,-0.0417703278362751,0.0,0.0,0.0,0.0,0.0,0.0,0.0,0.0,0.0,-0.13461539149284363,0.30153846740722656,10.173333168029785,0.0,0.0,0.0,0.0,0.0,0.0,0.0,0.0,0.0
1646244223.6904461,4887,1646244223,689958886,,0.0,0.0,0.0,0.0,0.0,0.0,0.0,0.0,0.0,0.0,0.0,0.0,0.0,0.006059573031961918,0.009085424244403839,-0.051357708871364594,0.0,0.0,0.0,0.0,0.0,0.0,0.0,0.0,0.0,0.26923078298568726,-0.3356410562992096,9.642051696777344,0.0,0.0,0.0,0.0,0.0,0.0,0.0,0.0,0.0
1646244223.6926455,4888,1646244223,692151454,,0.0,0.0,0.0,0.0,0.0,0.0,0.0,0.0,0.0,0.0,0.0,0.0,0.0,-0.0067235990427434444,0.0026938372757285833,-0.054553501307964325,0.0,0.0,0.0,0.0,0.0,0.0,0.0,0.0,0.0,0.26923078298568726,0.08435897529125214,9.374615669250488,0.0,0.0,0.0,0.0,0.0,0.0,0.0,0.0,0.0
1646244223.6947505,4889,1646244223,694409095,,0.0,0.0,0.0,0.0,0.0,0.0,0.0,0.0,0.0,0.0,0.0,0.0,0.0,0.004994308575987816,-0.018611449748277664,-0.07479353249073029,0.0,0.0,0.0,0.0,0.0,0.0,0.0,0.0,0.0,-0.15256410837173462,-0.06820512562990189,10.135641098022461,0.0,0.0,0.0,0.0,0.0,0.0,0.0,0.0,0.0
1646244223.6968575,4890,1646244223,696605819,,0.0,0.0,0.0,0.0,0.0,0.0,0.0,0.0,0.0,0.0,0.0,0.0,0.0,-0.009919392876327038,0.0037591024301946163,-0.039639800786972046,0.0,0.0,0.0,0.0,0.0,0.0,0.0,0.0,0.0,0.05384615436196327,-0.29076921939849854,9.835898399353027,0.0,0.0,0.0,0.0,0.0,0.0,0.0,0.0,0.0
1646244223.6992865,4891,1646244223,698835564,,0.0,0.0,0.0,0.0,0.0,0.0,0.0,0.0,0.0,0.0,0.0,0.0,0.0,-0.019506771117448807,-0.009024071507155895,-0.08544616401195526,0.0,0.0,0.0,0.0,0.0,0.0,0.0,0.0,0.0,-0.3069230914115906,0.1382051259279251,10.166154861450195,0.0,0.0,0.0,0.0,0.0,0.0,0.0,0.0,0.0
1646244223.7017999,4892,1646244223,701179749,,0.0,0.0,0.0,0.0,0.0,0.0,0.0,0.0,0.0,0.0,0.0,0.0,0.0,0.012451158836483955,-0.020741978660225868,-0.039639800786972046,0.0,0.0,0.0,0.0,0.0,0.0,0.0,0.0,0.0,0.3033333420753479,-0.4038461744785309,9.473333358764648,0.0,0.0,0.0,0.0,0.0,0.0,0.0,0.0,0.0
1646244223.7038078,4893,1646244223,703449811,,0.0,0.0,0.0,0.0,0.0,0.0,0.0,0.0,0.0,0.0,0.0,0.0,0.0,0.0028637798968702555,0.009085424244403839,-0.08438090234994888,0.0,0.0,0.0,0.0,0.0,0.0,0.0,0.0,0.0,-0.10230769217014313,-0.06102564185857773,9.925641059875488,0.0,0.0,0.0,0.0,0.0,0.0,0.0,0.0,0.0
1646244223.7061794,4894,1646244223,705722772,,0.0,0.0,0.0,0.0,0.0,0.0,0.0,0.0,0.0,0.0,0.0,0.0,0.0,-0.02589835785329342,-0.006893542595207691,-0.060945089906454086,0.0,0.0,0.0,0.0,0.0,0.0,0.0,0.0,0.0,0.001794871874153614,-0.03410256281495094,9.68871784210205,0.0,0.0,0.0,0.0,0.0,0.0,0.0,0.0,0.0
1646244223.7083385,4895,1646244223,707988108,,0.0,0.0,0.0,0.0,0.0,0.0,0.0,0.0,0.0,0.0,0.0,0.0,0.0,-0.0067235990427434444,0.006954895332455635,-0.04496612399816513,0.0,0.0,0.0,0.0,0.0,0.0,0.0,0.0,0.0,-0.35179489850997925,0.08435897529125214,10.074614524841309,0.0,0.0,0.0,0.0,0.0,0.0,0.0,0.0,0.0
1646244223.7106285,4896,1646244223,710189183,,0.0,0.0,0.0,0.0,0.0,0.0,0.0,0.0,0.0,0.0,0.0,0.0,0.0,0.008190101943910122,0.023999126628041267,-0.06414088606834412,0.0,0.0,0.0,0.0,0.0,0.0,0.0,0.0,0.0,-0.32846155762672424,0.10948718339204788,10.060256004333496,0.0,0.0,0.0,0.0,0.0,0.0,0.0,0.0,0.0
1646244223.7128677,4897,1646244223,712416113,,0.0,0.0,0.0,0.0,0.0,0.0,0.0,0.0,0.0,0.0,0.0,0.0,0.0,-0.008854128420352936,0.023999126628041267,-0.05668403208255768,0.0,0.0,0.0,0.0,0.0,0.0,0.0,0.0,0.0,0.03948718309402466,0.04307692497968674,9.735384941101074,0.0,0.0,0.0,0.0,0.0,0.0,0.0,0.0,0.0
1646244223.7151,4898,1646244223,714649223,,0.0,0.0,0.0,0.0,0.0,0.0,0.0,0.0,0.0,0.0,0.0,0.0,0.0,0.00925536546856165,-0.009024071507155895,-0.08438090234994888,0.0,0.0,0.0,0.0,0.0,0.0,0.0,0.0,0.0,-0.003589743748307228,0.18666666746139526,9.785640716552734,0.0,0.0,0.0,0.0,0.0,0.0,0.0,0.0,0.0
1646244223.7173357,4899,1646244223,716875914,,0.0,0.0,0.0,0.0,0.0,0.0,0.0,0.0,0.0,0.0,0.0,0.0,0.0,0.00712483748793602,0.01654227450489998,-0.08225037902593613,0.0,0.0,0.0,0.0,0.0,0.0,0.0,0.0,0.0,0.24589744210243225,-0.29076921939849854,9.338717460632324,0.0,0.0,0.0,0.0,0.0,0.0,0.0,0.0,0.0
1646244223.719522,4900,1646244223,719067437,,0.0,0.0,0.0,0.0,0.0,0.0,0.0,0.0,0.0,0.0,0.0,0.0,0.0,-0.012049921788275242,0.008020159788429737,-0.022595571354031563,0.0,0.0,0.0,0.0,0.0,0.0,0.0,0.0,0.0,0.30512821674346924,-0.16871795058250427,9.128717422485352,0.0,0.0,0.0,0.0,0.0,0.0,0.0,0.0,0.0
1646244223.721871,4901,1646244223,721266264,,0.0,0.0,0.0,0.0,0.0,0.0,0.0,0.0,0.0,0.0,0.0,0.0,0.0,0.0007332512177526951,0.018672803416848183,-0.054553501307964325,0.0,0.0,0.0,0.0,0.0,0.0,0.0,0.0,0.0,0.16871795058250427,0.11307692527770996,9.602563858032227,0.0,0.0,0.0,0.0,0.0,0.0,0.0,0.0,0.0
1646244223.7239892,4902,1646244223,723520761,,0.0,0.0,0.0,0.0,0.0,0.0,0.0,0.0,0.0,0.0,0.0,0.0,0.0,0.012451158836483955,0.028260184451937675,-0.051357708871364594,0.0,0.0,0.0,0.0,0.0,0.0,0.0,0.0,0.0,0.2566666603088379,-0.1974359005689621,9.247179985046387,0.0,0.0,0.0,0.0,0.0,0.0,0.0,0.0,0.0
1646244223.7261214,4903,1646244223,725777200,,0.0,0.0,0.0,0.0,0.0,0.0,0.0,0.0,0.0,0.0,0.0,0.0,0.0,-0.0024625419173389673,0.0016285729361698031,-0.0417703278362751,0.0,0.0,0.0,0.0,0.0,0.0,0.0,0.0,0.0,-0.1328205168247223,0.3069230914115906,10.05846118927002,0.0,0.0,0.0,0.0,0.0,0.0,0.0,0.0,0.0
1646244223.7283437,4904,1646244223,727984821,,0.0,0.0,0.0,0.0,0.0,0.0,0.0,0.0,0.0,0.0,0.0,0.0,0.0,0.027364861220121384,0.010150688700377941,-0.04496612399816513,0.0,0.0,0.0,0.0,0.0,0.0,0.0,0.0,0.0,-0.1328205168247223,-0.05384615436196327,10.06384563446045,0.0,0.0,0.0,0.0,0.0,0.0,0.0,0.0,0.0
1646244223.7316685,4905,1646244223,730218257,,0.0,0.0,0.0,0.0,0.0,0.0,0.0,0.0,0.0,0.0,0.0,0.0,0.0,-0.019506771117448807,-0.0047630127519369125,-0.05881455913186073,0.0,0.0,0.0,0.0,0.0,0.0,0.0,0.0,0.0,0.12564103305339813,0.2853846251964569,9.762307167053223,0.0,0.0,0.0,0.0,0.0,0.0,0.0,0.0,0.0
1646244223.7326953,4906,1646244223,732412956,,0.0,0.0,0.0,0.0,0.0,0.0,0.0,0.0,0.0,0.0,0.0,0.0,0.0,0.01777748018503189,0.0037591024301946163,-0.022595571354031563,0.0,0.0,0.0,0.0,0.0,0.0,0.0,0.0,0.0,0.37512820959091187,-0.2656410336494446,9.211281776428223,0.0,0.0,0.0,0.0,0.0,0.0,0.0,0.0,0.0
1646244223.7350044,4907,1646244223,734735988,,0.0,0.0,0.0,0.0,0.0,0.0,0.0,0.0,0.0,0.0,0.0,0.0,0.0,0.001798515673726797,-0.005828278139233589,-0.032182954251766205,0.0,0.0,0.0,0.0,0.0,0.0,0.0,0.0,0.0,0.3769230842590332,-0.2674359083175659,9.423076629638672,0.0,0.0,0.0,0.0,0.0,0.0,0.0,0.0,0.0
1646244223.737404,4908,1646244223,736976856,,0.0,0.0,0.0,0.0,0.0,0.0,0.0,0.0,0.0,0.0,0.0,0.0,0.0,-0.014180450700223446,0.0026938372757285833,-0.02366083674132824,0.0,0.0,0.0,0.0,0.0,0.0,0.0,0.0,0.0,0.24589744210243225,0.07717949151992798,9.45358943939209,0.0,0.0,0.0,0.0,0.0,0.0,0.0,0.0,0.0
1646244223.7395766,4909,1646244223,739199622,,0.0,0.0,0.0,0.0,0.0,0.0,0.0,0.0,0.0,0.0,0.0,0.0,0.0,0.004994308575987816,-0.0036977482959628105,-0.011942928656935692,0.0,0.0,0.0,0.0,0.0,0.0,0.0,0.0,0.0,-0.22794872522354126,0.06820512562990189,9.956153869628906,0.0,0.0,0.0,0.0,0.0,0.0,0.0,0.0,0.0
1646244223.7418091,4910,1646244223,741436480,,0.0,0.0,0.0,0.0,0.0,0.0,0.0,0.0,0.0,0.0,0.0,0.0,0.0,-0.01844150573015213,-0.0005019548698328435,-0.03431348130106926,0.0,0.0,0.0,0.0,0.0,0.0,0.0,0.0,0.0,0.08974359184503555,0.07179487496614456,9.527179718017578,0.0,0.0,0.0,0.0,0.0,0.0,0.0,0.0,0.0
1646244223.7440493,4911,1646244223,743771946,,0.0,0.0,0.0,0.0,0.0,0.0,0.0,0.0,0.0,0.0,0.0,0.0,0.0,-0.009919392876327038,0.00588963134214282,0.0008402442326769233,0.0,0.0,0.0,0.0,0.0,0.0,0.0,0.0,0.0,-0.28358975052833557,0.03948718309402466,9.972307205200195,0.0,0.0,0.0,0.0,0.0,0.0,0.0,0.0,0.0
1646244223.7487676,4912,1646244223,746038046,,0.0,0.0,0.0,0.0,0.0,0.0,0.0,0.0,0.0,0.0,0.0,0.0,0.0,-0.0013972773449495435,-0.012219863012433052,0.0019055086886510253,0.0,0.0,0.0,0.0,0.0,0.0,0.0,0.0,0.0,0.1705128252506256,0.18128205835819244,9.475128173828125,0.0,0.0,0.0,0.0,0.0,0.0,0.0,0.0,0.0
1646244223.7488017,4913,1646244223,748262783,,0.0,0.0,0.0,0.0,0.0,0.0,0.0,0.0,0.0,0.0,0.0,0.0,0.0,-0.004593071062117815,0.008020159788429737,0.011492888443171978,0.0,0.0,0.0,0.0,0.0,0.0,0.0,0.0,0.0,-0.14358974993228912,0.16153846681118011,10.128461837768555,0.0,0.0,0.0,0.0,0.0,0.0,0.0,0.0,0.0
1646244223.7509148,4914,1646244223,750461463,,0.0,0.0,0.0,0.0,0.0,0.0,0.0,0.0,0.0,0.0,0.0,0.0,0.0,-0.014180450700223446,0.012281217612326145,0.008297095075249672,0.0,0.0,0.0,0.0,0.0,0.0,0.0,0.0,0.0,-0.22435897588729858,0.5007692575454712,10.182308197021484,0.0,0.0,0.0,0.0,0.0,0.0,0.0,0.0,0.0
1646244223.7531369,4915,1646244223,752610093,,0.0,0.0,0.0,0.0,0.0,0.0,0.0,0.0,0.0,0.0,0.0,0.0,0.0,-0.004593071062117815,0.011215953156352043,0.01575394533574581,0.0,0.0,0.0,0.0,0.0,0.0,0.0,0.0,0.0,-0.22256410121917725,0.4828205108642578,10.474871635437012,0.0,0.0,0.0,0.0,0.0,0.0,0.0,0.0,0.0
1646244223.7551634,4916,1646244223,754802420,,0.0,0.0,0.0,0.0,0.0,0.0,0.0,0.0,0.0,0.0,0.0,0.0,0.0,-0.016310978680849075,-0.0047630127519369125,0.0232107974588871,0.0,0.0,0.0,0.0,0.0,0.0,0.0,0.0,0.0,0.05743589997291565,0.0825641080737114,9.60615348815918,0.0,0.0,0.0,0.0,0.0,0.0,0.0,0.0,0.0
1646244223.7575629,4917,1646244223,757053510,,0.0,0.0,0.0,0.0,0.0,0.0,0.0,0.0,0.0,0.0,0.0,0.0,0.0,0.013516423292458057,-0.02393777295947075,0.004036037251353264,0.0,0.0,0.0,0.0,0.0,0.0,0.0,0.0,0.0,0.24948717653751373,0.00897435937076807,9.572051048278809,0.0,0.0,0.0,0.0,0.0,0.0,0.0,0.0,0.0
1646244223.7597222,4918,1646244223,759296072,,0.0,0.0,0.0,0.0,0.0,0.0,0.0,0.0,0.0,0.0,0.0,0.0,0.0,0.00712483748793602,-0.0036977482959628105,0.028537116944789886,0.0,0.0,0.0,0.0,0.0,0.0,0.0,0.0,0.0,0.19205129146575928,-0.026923077180981636,9.520000457763672,0.0,0.0,0.0,0.0,0.0,0.0,0.0,0.0,0.0
1646244223.7619898,4919,1646244223,761571485,,0.0,0.0,0.0,0.0,0.0,0.0,0.0,0.0,0.0,0.0,0.0,0.0,0.0,0.012451158836483955,0.010150688700377941,0.04558135196566582,0.0,0.0,0.0,0.0,0.0,0.0,0.0,0.0,0.0,0.3446153998374939,0.08076923340559006,9.625897407531738,0.0,0.0,0.0,0.0,0.0,0.0,0.0,0.0,0.0
1646244223.7642255,4920,1646244223,763836498,,0.0,0.0,0.0,0.0,0.0,0.0,0.0,0.0,0.0,0.0,0.0,0.0,0.0,0.00925536546856165,-0.020741978660225868,0.009362359531223774,0.0,0.0,0.0,0.0,0.0,0.0,0.0,0.0,0.0,-0.08794872462749481,0.21358974277973175,10.011795043945312,0.0,0.0,0.0,0.0,0.0,0.0,0.0,0.0,0.0
1646244223.766571,4921,1646244223,766113745,,0.0,0.0,0.0,0.0,0.0,0.0,0.0,0.0,0.0,0.0,0.0,0.0,0.0,-0.01098465733230114,0.0026938372757285833,0.058364517986774445,0.0,0.0,0.0,0.0,0.0,0.0,0.0,0.0,0.0,-0.15076923370361328,0.4738461673259735,10.39589786529541,0.0,0.0,0.0,0.0,0.0,0.0,0.0,0.0,0.0
1646244223.768807,4922,1646244223,768326045,,0.0,0.0,0.0,0.0,0.0,0.0,0.0,0.0,0.0,0.0,0.0,0.0,0.0,-0.0013972773449495435,-0.012219863012433052,0.013623417355120182,0.0,0.0,0.0,0.0,0.0,0.0,0.0,0.0,0.0,0.044871795922517776,0.10051282495260239,9.658205032348633,0.0,0.0,0.0,0.0,0.0,0.0,0.0,0.0,0.0
1646244223.7710292,4923,1646244223,770601165,,0.0,0.0,0.0,0.0,0.0,0.0,0.0,0.0,0.0,0.0,0.0,0.0,0.0,-0.01098465733230114,-0.0036977482959628105,0.05516872555017471,0.0,0.0,0.0,0.0,0.0,0.0,0.0,0.0,0.0,0.05923077091574669,0.046666666865348816,9.95974349975586,0.0,0.0,0.0,0.0,0.0,0.0,0.0,0.0,0.0
1646244223.775577,4924,1646244223,772852816,,0.0,0.0,0.0,0.0,0.0,0.0,0.0,0.0,0.0,0.0,0.0,0.0,0.0,-0.014180450700223446,-0.02393777295947075,0.037059236317873,0.0,0.0,0.0,0.0,0.0,0.0,0.0,0.0,0.0,0.2297435998916626,0.0825641080737114,9.607949256896973,0.0,0.0,0.0,0.0,0.0,0.0,0.0,0.0,0.0
1646244223.7756488,4925,1646244223,775074880,,0.0,0.0,0.0,0.0,0.0,0.0,0.0,0.0,0.0,0.0,0.0,0.0,0.0,0.011385894380509853,-0.02713356725871563,0.02001500315964222,0.0,0.0,0.0,0.0,0.0,0.0,0.0,0.0,0.0,-0.09512820839881897,0.20461538434028625,10.20923137664795,0.0,0.0,0.0,0.0,0.0,0.0,0.0,0.0,0.0
1646244223.777658,4926,1646244223,777314579,,0.0,0.0,0.0,0.0,0.0,0.0,0.0,0.0,0.0,0.0,0.0,0.0,0.0,-0.0003320134710520506,-0.01115459855645895,0.032798174768686295,0.0,0.0,0.0,0.0,0.0,0.0,0.0,0.0,0.0,0.14538460969924927,0.4217948913574219,9.789230346679688,0.0,0.0,0.0,0.0,0.0,0.0,0.0,0.0,0.0
1646244223.7799299,4927,1646244223,779592277,,0.0,0.0,0.0,0.0,0.0,0.0,0.0,0.0,0.0,0.0,0.0,0.0,0.0,-0.0013972773449495435,-0.018611449748277664,0.010427623987197876,0.0,0.0,0.0,0.0,0.0,0.0,0.0,0.0,0.0,-0.012564103119075298,0.14538460969924927,10.09615421295166,0.0,0.0,0.0,0.0,0.0,0.0,0.0,0.0,0.0
1646244223.782356,4928,1646244223,781807486,,0.0,0.0,0.0,0.0,0.0,0.0,0.0,0.0,0.0,0.0,0.0,0.0,0.0,-0.02163730002939701,-0.006893542595207691,0.05942978337407112,0.0,0.0,0.0,0.0,0.0,0.0,0.0,0.0,0.0,0.44333335757255554,-0.1328205168247223,9.275897026062012,0.0,0.0,0.0,0.0,0.0,0.0,0.0,0.0,0.0
1646244223.7848501,4929,1646244223,784101343,,0.0,0.0,0.0,0.0,0.0,0.0,0.0,0.0,0.0,0.0,0.0,0.0,0.0,0.018842745572328568,-0.0036977482959628105,0.04451608657836914,0.0,0.0,0.0,0.0,0.0,0.0,0.0,0.0,0.0,0.3805128335952759,-0.012564103119075298,9.537948608398438,0.0,0.0,0.0,0.0,0.0,0.0,0.0,0.0,0.0
1646244223.7867482,4930,1646244223,786326786,,0.0,0.0,0.0,0.0,0.0,0.0,0.0,0.0,0.0,0.0,0.0,0.0,0.0,-0.009919392876327038,-0.0026324838399887085,0.0786045491695404,0.0,0.0,0.0,0.0,0.0,0.0,0.0,0.0,0.0,-0.0735897421836853,0.032307691872119904,9.923846244812012,0.0,0.0,0.0,0.0,0.0,0.0,0.0,0.0,0.0
1646244223.7889204,4931,1646244223,788553986,,0.0,0.0,0.0,0.0,0.0,0.0,0.0,0.0,0.0,0.0,0.0,0.0,0.0,-0.005658335518091917,0.018672803416848183,0.06582137197256088,0.0,0.0,0.0,0.0,0.0,0.0,0.0,0.0,0.0,0.08615384995937347,0.5079486966133118,9.710256576538086,0.0,0.0,0.0,0.0,0.0,0.0,0.0,0.0,0.0
1646244223.7911608,4932,1646244223,790799188,,0.0,0.0,0.0,0.0,0.0,0.0,0.0,0.0,0.0,0.0,0.0,0.0,0.0,0.00712483748793602,-0.026068301871418953,0.035993970930576324,0.0,0.0,0.0,0.0,0.0,0.0,0.0,0.0,0.0,-0.03948718309402466,-0.014358974993228912,10.225384712219238,0.0,0.0,0.0,0.0,0.0,0.0,0.0,0.0,0.0
1646244223.793324,4933,1646244223,793037917,,0.0,0.0,0.0,0.0,0.0,0.0,0.0,0.0,0.0,0.0,0.0,0.0,0.0,-0.009919392876327038,-0.009024071507155895,0.07753928005695343,0.0,0.0,0.0,0.0,0.0,0.0,0.0,0.0,0.0,0.26025640964508057,0.4235897660255432,9.950769424438477,0.0,0.0,0.0,0.0,0.0,0.0,0.0,0.0,0.0
1646244223.795711,4934,1646244223,795258637,,0.0,0.0,0.0,0.0,0.0,0.0,0.0,0.0,0.0,0.0,0.0,0.0,0.0,0.013516423292458057,-0.012219863012433052,0.03066764585673809,0.0,0.0,0.0,0.0,0.0,0.0,0.0,0.0,0.0,0.5510256290435791,-0.27282050251960754,9.247179985046387,0.0,0.0,0.0,0.0,0.0,0.0,0.0,0.0,0.0
1646244223.7979977,4935,1646244223,797504594,,0.0,0.0,0.0,0.0,0.0,0.0,0.0,0.0,0.0,0.0,0.0,0.0,0.0,0.001798515673726797,-0.014350391924381256,0.054103460162878036,0.0,0.0,0.0,0.0,0.0,0.0,0.0,0.0,0.0,0.44692307710647583,0.3392307758331299,9.367435455322266,0.0,0.0,0.0,0.0,0.0,0.0,0.0,0.0,0.0
1646244223.8002658,4936,1646244223,799789081,,0.0,0.0,0.0,0.0,0.0,0.0,0.0,0.0,0.0,0.0,0.0,0.0,0.0,0.013516423292458057,-0.01648092083632946,0.03173290938138962,0.0,0.0,0.0,0.0,0.0,0.0,0.0,0.0,0.0,0.3302564322948456,0.05205128341913223,9.670769691467285,0.0,0.0,0.0,0.0,0.0,0.0,0.0,0.0,0.0
1646244223.8025615,4937,1646244223,802122744,,0.0,0.0,0.0,0.0,0.0,0.0,0.0,0.0,0.0,0.0,0.0,0.0,0.0,0.01777748018503189,-0.021807242184877396,0.04877714440226555,0.0,0.0,0.0,0.0,0.0,0.0,0.0,0.0,0.0,-0.10051282495260239,-0.06641025841236115,9.974102020263672,0.0,0.0,0.0,0.0,0.0,0.0,0.0,0.0,0.0
1646244223.8046734,4938,1646244223,804385457,,0.0,0.0,0.0,0.0,0.0,0.0,0.0,0.0,0.0,0.0,0.0,0.0,0.0,0.019908009096980095,0.0005633095279335976,0.06369084119796753,0.0,0.0,0.0,0.0,0.0,0.0,0.0,0.0,0.0,0.13461539149284363,0.2117948830127716,9.667179107666016,0.0,0.0,0.0,0.0,0.0,0.0,0.0,0.0,0.0
1646244223.806988,4939,1646244223,806609311,,0.0,0.0,0.0,0.0,0.0,0.0,0.0,0.0,0.0,0.0,0.0,0.0,0.0,0.015646953135728836,0.0016285729361698031,0.05623399093747139,0.0,0.0,0.0,0.0,0.0,0.0,0.0,0.0,0.0,-0.1741025745868683,-0.00897435937076807,10.115897178649902,0.0,0.0,0.0,0.0,0.0,0.0,0.0,0.0,0.0
1646244223.8091896,4940,1646244223,808839234,,0.0,0.0,0.0,0.0,0.0,0.0,0.0,0.0,0.0,0.0,0.0,0.0,0.0,0.012451158836483955,0.018672803416848183,0.04025502875447273,0.0,0.0,0.0,0.0,0.0,0.0,0.0,0.0,0.0,-0.07538461685180664,0.4792307913303375,9.896923065185547,0.0,0.0,0.0,0.0,0.0,0.0,0.0,0.0,0.0
1646244223.8125465,4941,1646244223,811127153,,0.0,0.0,0.0,0.0,0.0,0.0,0.0,0.0,0.0,0.0,0.0,0.0,0.0,0.001798515673726797,0.021868597716093063,0.07327822595834732,0.0,0.0,0.0,0.0,0.0,0.0,0.0,0.0,0.0,-0.09153846651315689,0.11128205060958862,9.85025691986084,0.0,0.0,0.0,0.0,0.0,0.0,0.0,0.0,0.0
1646244223.8137772,4942,1646244223,813411786,,0.0,0.0,0.0,0.0,0.0,0.0,0.0,0.0,0.0,0.0,0.0,0.0,0.0,0.00712483748793602,-0.0026324838399887085,0.050907667726278305,0.0,0.0,0.0,0.0,0.0,0.0,0.0,0.0,0.0,-0.3500000238418579,0.15076923370361328,10.277436256408691,0.0,0.0,0.0,0.0,0.0,0.0,0.0,0.0,0.0
1646244223.8159504,4943,1646244223,815592991,,0.0,0.0,0.0,0.0,0.0,0.0,0.0,0.0,0.0,0.0,0.0,0.0,0.0,0.0007332512177526951,0.0026938372757285833,0.057299256324768066,0.0,0.0,0.0,0.0,0.0,0.0,0.0,0.0,0.0,-0.38948720693588257,0.5025641322135925,10.302563667297363,0.0,0.0,0.0,0.0,0.0,0.0,0.0,0.0,0.0
1646244223.8184986,4944,1646244223,817818114,,0.0,0.0,0.0,0.0,0.0,0.0,0.0,0.0,0.0,0.0,0.0,0.0,0.0,-0.013115186244249344,0.023999126628041267,0.07753928005695343,0.0,0.0,0.0,0.0,0.0,0.0,0.0,0.0,0.0,-0.003589743748307228,-0.19923077523708344,9.886154174804688,0.0,0.0,0.0,0.0,0.0,0.0,0.0,0.0,0.0
1646244223.8210957,4945,1646244223,820073084,,0.0,0.0,0.0,0.0,0.0,0.0,0.0,0.0,0.0,0.0,0.0,0.0,0.0,0.006059573031961918,0.012281217612326145,0.054103460162878036,0.0,0.0,0.0,0.0,0.0,0.0,0.0,0.0,0.0,0.1794871836900711,0.03948718309402466,9.518204689025879,0.0,0.0,0.0,0.0,0.0,0.0,0.0,0.0,0.0
1646244223.822719,4946,1646244223,822368289,,0.0,0.0,0.0,0.0,0.0,0.0,0.0,0.0,0.0,0.0,0.0,0.0,0.0,-0.019506771117448807,-0.0005019548698328435,0.054103460162878036,0.0,0.0,0.0,0.0,0.0,0.0,0.0,0.0,0.0,0.3679487407207489,-0.3392307758331299,9.248974800109863,0.0,0.0,0.0,0.0,0.0,0.0,0.0,0.0,0.0
1646244223.8250122,4947,1646244223,824628036,,0.0,0.0,0.0,0.0,0.0,0.0,0.0,0.0,0.0,0.0,0.0,0.0,0.0,-0.023767828941345215,0.01973806880414486,0.05623399093747139,0.0,0.0,0.0,0.0,0.0,0.0,0.0,0.0,0.0,0.2566666603088379,-0.3948718011379242,9.421281814575195,0.0,0.0,0.0,0.0,0.0,0.0,0.0,0.0,0.0
1646244223.8271568,4948,1646244223,826823684,,0.0,0.0,0.0,0.0,0.0,0.0,0.0,0.0,0.0,0.0,0.0,0.0,0.0,-0.014180450700223446,0.0037591024301946163,0.04984240233898163,0.0,0.0,0.0,0.0,0.0,0.0,0.0,0.0,0.0,0.1148717999458313,0.016153845936059952,9.679743766784668,0.0,0.0,0.0,0.0,0.0,0.0,0.0,0.0,0.0
1646244223.8294804,4949,1646244223,829109825,,0.0,0.0,0.0,0.0,0.0,0.0,0.0,0.0,0.0,0.0,0.0,0.0,0.0,-0.026963621377944946,0.013346482068300247,0.0786045491695404,0.0,0.0,0.0,0.0,0.0,0.0,0.0,0.0,0.0,-0.24948717653751373,0.014358974993228912,10.227179527282715,0.0,0.0,0.0,0.0,0.0,0.0,0.0,0.0,0.0
1646244223.831991,4950,1646244223,831384388,,0.0,0.0,0.0,0.0,0.0,0.0,0.0,0.0,0.0,0.0,0.0,0.0,0.0,-0.019506771117448807,0.025064390152692795,0.057299256324768066,0.0,0.0,0.0,0.0,0.0,0.0,0.0,0.0,0.0,-0.010769231244921684,0.025128206238150597,9.89512825012207,0.0,0.0,0.0,0.0,0.0,0.0,0.0,0.0,0.0
1646244223.837305,4951,1646244223,833644314,,0.0,0.0,0.0,0.0,0.0,0.0,0.0,0.0,0.0,0.0,0.0,0.0,0.0,-0.012049921788275242,0.012281217612326145,0.046646613627672195,0.0,0.0,0.0,0.0,0.0,0.0,0.0,0.0,0.0,0.06820512562990189,-0.2620512843132019,9.760512351989746,0.0,0.0,0.0,0.0,0.0,0.0,0.0,0.0,0.0
1646244223.8373468,4952,1646244223,835888326,,0.0,0.0,0.0,0.0,0.0,0.0,0.0,0.0,0.0,0.0,0.0,0.0,0.0,-0.02589835785329342,0.010150688700377941,0.04771187901496887,0.0,0.0,0.0,0.0,0.0,0.0,0.0,0.0,0.0,0.2441025674343109,0.012564103119075298,9.449999809265137,0.0,0.0,0.0,0.0,0.0,0.0,0.0,0.0,0.0
1646244223.8385935,4953,1646244223,838135014,,0.0,0.0,0.0,0.0,0.0,0.0,0.0,0.0,0.0,0.0,0.0,0.0,0.0,-0.017376242205500603,-0.025003038346767426,0.025341326370835304,0.0,0.0,0.0,0.0,0.0,0.0,0.0,0.0,0.0,0.2710256576538086,-0.42000001668930054,9.186153411865234,0.0,0.0,0.0,0.0,0.0,0.0,0.0,0.0,0.0
1646244223.8407798,4954,1646244223,840435505,,0.0,0.0,0.0,0.0,0.0,0.0,0.0,0.0,0.0,0.0,0.0,0.0,0.0,-0.03655100241303444,-0.021807242184877396,0.039189763367176056,0.0,0.0,0.0,0.0,0.0,0.0,0.0,0.0,0.0,-0.05384615436196327,0.17230769991874695,9.873589515686035,0.0,0.0,0.0,0.0,0.0,0.0,0.0,0.0,0.0
1646244223.8435311,4955,1646244223,842682612,,0.0,0.0,0.0,0.0,0.0,0.0,0.0,0.0,0.0,0.0,0.0,0.0,0.0,-0.022702563554048538,0.004824366886168718,0.01681920886039734,0.0,0.0,0.0,0.0,0.0,0.0,0.0,0.0,0.0,0.007179487496614456,-0.11846154183149338,9.738973617553711,0.0,0.0,0.0,0.0,0.0,0.0,0.0,0.0,0.0
1646244223.845444,4956,1646244223,845001259,,0.0,0.0,0.0,0.0,0.0,0.0,0.0,0.0,0.0,0.0,0.0,0.0,0.0,-0.008854128420352936,-0.005828278139233589,0.018949739634990692,0.0,0.0,0.0,0.0,0.0,0.0,0.0,0.0,0.0,0.1974359005689621,-0.3266666829586029,9.306410789489746,0.0,0.0,0.0,0.0,0.0,0.0,0.0,0.0,0.0
1646244223.8476608,4957,1646244223,847256798,,0.0,0.0,0.0,0.0,0.0,0.0,0.0,0.0,0.0,0.0,0.0,0.0,0.0,-0.02909415028989315,0.012281217612326145,-0.00022502047067973763,0.0,0.0,0.0,0.0,0.0,0.0,0.0,0.0,0.0,0.1741025745868683,-0.19025641679763794,9.3889741897583,0.0,0.0,0.0,0.0,0.0,0.0,0.0,0.0,0.0
1646244223.8499305,4958,1646244223,849456498,,0.0,0.0,0.0,0.0,0.0,0.0,0.0,0.0,0.0,0.0,0.0,0.0,0.0,-0.0024625419173389673,-0.018611449748277664,-0.005551342852413654,0.0,0.0,0.0,0.0,0.0,0.0,0.0,0.0,0.0,-0.10769230872392654,-0.26025640964508057,9.509230613708496,0.0,0.0,0.0,0.0,0.0,0.0,0.0,0.0,0.0
1646244223.8523676,4959,1646244223,851729917,,0.0,0.0,0.0,0.0,0.0,0.0,0.0,0.0,0.0,0.0,0.0,0.0,0.0,0.008190101943910122,0.015477010980248451,0.011492888443171978,0.0,0.0,0.0,0.0,0.0,0.0,0.0,0.0,0.0,0.1238461583852768,-0.13102564215660095,9.539743423461914,0.0,0.0,0.0,0.0,0.0,0.0,0.0,0.0,0.0
1646244223.8559299,4960,1646244223,854011899,,0.0,0.0,0.0,0.0,0.0,0.0,0.0,0.0,0.0,0.0,0.0,0.0,0.0,-0.0003320134710520506,0.010150688700377941,-0.018334513530135155,0.0,0.0,0.0,0.0,0.0,0.0,0.0,0.0,0.0,-0.3033333420753479,-0.07897436618804932,10.071025848388672,0.0,0.0,0.0,0.0,0.0,0.0,0.0,0.0,0.0
1646244223.8567924,4961,1646244223,856260584,,0.0,0.0,0.0,0.0,0.0,0.0,0.0,0.0,0.0,0.0,0.0,0.0,0.0,0.003929044120013714,-0.014350391924381256,-0.01407345850020647,0.0,0.0,0.0,0.0,0.0,0.0,0.0,0.0,0.0,-0.29076921939849854,0.16692309081554413,10.045896530151367,0.0,0.0,0.0,0.0,0.0,0.0,0.0,0.0,0.0
1646244223.8588743,4962,1646244223,858517397,,0.0,0.0,0.0,0.0,0.0,0.0,0.0,0.0,0.0,0.0,0.0,0.0,0.0,0.011385894380509853,0.011215953156352043,-0.03644401207566261,0.0,0.0,0.0,0.0,0.0,0.0,0.0,0.0,0.0,-0.44333335757255554,0.10230769217014313,10.252307891845703,0.0,0.0,0.0,0.0,0.0,0.0,0.0,0.0,0.0
1646244223.8622727,4963,1646244223,860821087,,0.0,0.0,0.0,0.0,0.0,0.0,0.0,0.0,0.0,0.0,0.0,0.0,0.0,0.015646953135728836,0.004824366886168718,-0.013008194044232368,0.0,0.0,0.0,0.0,0.0,0.0,0.0,0.0,0.0,-0.1561538577079773,-0.2674359083175659,9.658205032348633,0.0,0.0,0.0,0.0,0.0,0.0,0.0,0.0,0.0
1646244223.863245,4964,1646244223,863002773,,0.0,0.0,0.0,0.0,0.0,0.0,0.0,0.0,0.0,0.0,0.0,0.0,0.0,0.024169068783521652,0.0026938372757285833,-0.03431348130106926,0.0,0.0,0.0,0.0,0.0,0.0,0.0,0.0,0.0,0.1741025745868683,-0.3733333349227905,9.528974533081055,0.0,0.0,0.0,0.0,0.0,0.0,0.0,0.0,0.0
1646244223.8655882,4965,1646244223,865249177,,0.0,0.0,0.0,0.0,0.0,0.0,0.0,0.0,0.0,0.0,0.0,0.0,0.0,0.001798515673726797,0.0005633095279335976,-0.025791365653276443,0.0,0.0,0.0,0.0,0.0,0.0,0.0,0.0,0.0,0.003589743748307228,-0.31589746475219727,9.44820499420166,0.0,0.0,0.0,0.0,0.0,0.0,0.0,0.0,0.0
1646244223.868054,4966,1646244223,867474953,,0.0,0.0,0.0,0.0,0.0,0.0,0.0,0.0,0.0,0.0,0.0,0.0,0.0,0.003929044120013714,0.029325447976589203,-0.05987982451915741,0.0,0.0,0.0,0.0,0.0,0.0,0.0,0.0,0.0,-0.25846153497695923,-0.07000000029802322,10.257692337036133,0.0,0.0,0.0,0.0,0.0,0.0,0.0,0.0,0.0
1646244223.8701549,4967,1646244223,869718719,,0.0,0.0,0.0,0.0,0.0,0.0,0.0,0.0,0.0,0.0,0.0,0.0,0.0,0.008190101943910122,0.027194919064641,-0.04496612399816513,0.0,0.0,0.0,0.0,0.0,0.0,0.0,0.0,0.0,-0.2476923167705536,-0.12564103305339813,10.071025848388672,0.0,0.0,0.0,0.0,0.0,0.0,0.0,0.0,0.0
1646244223.8723454,4968,1646244223,871947213,,0.0,0.0,0.0,0.0,0.0,0.0,0.0,0.0,0.0,0.0,0.0,0.0,0.0,0.013516423292458057,0.011215953156352043,-0.051357708871364594,0.0,0.0,0.0,0.0,0.0,0.0,0.0,0.0,0.0,-0.19025641679763794,0.1382051259279251,10.133846282958984,0.0,0.0,0.0,0.0,0.0,0.0,0.0,0.0,0.0
1646244223.8745868,4969,1646244223,874173855,,0.0,0.0,0.0,0.0,0.0,0.0,0.0,0.0,0.0,0.0,0.0,0.0,0.0,-0.0067235990427434444,0.011215953156352043,-0.04496612399816513,0.0,0.0,0.0,0.0,0.0,0.0,0.0,0.0,0.0,0.28179487586021423,-0.1651282161474228,9.378205299377441,0.0,0.0,0.0,0.0,0.0,0.0,0.0,0.0,0.0
1646244223.876926,4970,1646244223,876440892,,0.0,0.0,0.0,0.0,0.0,0.0,0.0,0.0,0.0,0.0,0.0,0.0,0.0,0.016712216660380363,-0.007958807051181793,-0.05348823964595795,0.0,0.0,0.0,0.0,0.0,0.0,0.0,0.0,0.0,0.14179487526416779,-0.35538461804389954,9.536153793334961,0.0,0.0,0.0,0.0,0.0,0.0,0.0,0.0,0.0
1646244223.8789568,4971,1646244223,878657671,,0.0,0.0,0.0,0.0,0.0,0.0,0.0,0.0,0.0,0.0,0.0,0.0,0.0,0.0007332512177526951,0.01654227450489998,-0.06840194761753082,0.0,0.0,0.0,0.0,0.0,0.0,0.0,0.0,0.0,0.06282051652669907,0.03769230842590332,9.866410255432129,0.0,0.0,0.0,0.0,0.0,0.0,0.0,0.0,0.0
1646244223.8813286,4972,1646244223,880903585,,0.0,0.0,0.0,0.0,0.0,0.0,0.0,0.0,0.0,0.0,0.0,0.0,0.0,0.003929044120013714,0.017607539892196655,-0.043900858610868454,0.0,0.0,0.0,0.0,0.0,0.0,0.0,0.0,0.0,0.1651282161474228,-0.3176923394203186,9.880769729614258,0.0,0.0,0.0,0.0,0.0,0.0,0.0,0.0,0.0
1646244223.8835568,4973,1646244223,883140689,,0.0,0.0,0.0,0.0,0.0,0.0,0.0,0.0,0.0,0.0,0.0,0.0,0.0,-0.012049921788275242,0.011215953156352043,-0.03324821963906288,0.0,0.0,0.0,0.0,0.0,0.0,0.0,0.0,0.0,0.026923077180981636,0.09153846651315689,9.713846206665039,0.0,0.0,0.0,0.0,0.0,0.0,0.0,0.0,0.0
1646244223.8859017,4974,1646244223,885459850,,0.0,0.0,0.0,0.0,0.0,0.0,0.0,0.0,0.0,0.0,0.0,0.0,0.0,-0.0024625419173389673,0.02293386124074459,-0.07585879415273666,0.0,0.0,0.0,0.0,0.0,0.0,0.0,0.0,0.0,0.06102564185857773,-0.3087179660797119,9.695897102355957,0.0,0.0,0.0,0.0,0.0,0.0,0.0,0.0,0.0
1646244223.8880742,4975,1646244223,887685998,,0.0,0.0,0.0,0.0,0.0,0.0,0.0,0.0,0.0,0.0,0.0,0.0,0.0,0.006059573031961918,0.009085424244403839,-0.054553501307964325,0.0,0.0,0.0,0.0,0.0,0.0,0.0,0.0,0.0,0.032307691872119904,-0.26384615898132324,9.803589820861816,0.0,0.0,0.0,0.0,0.0,0.0,0.0,0.0,0.0
1646244223.8903737,4976,1646244223,889921397,,0.0,0.0,0.0,0.0,0.0,0.0,0.0,0.0,0.0,0.0,0.0,0.0,0.0,-0.017376242205500603,-0.01115459855645895,-0.07266300171613693,0.0,0.0,0.0,0.0,0.0,0.0,0.0,0.0,0.0,-0.05923077091574669,0.05923077091574669,9.923846244812012,0.0,0.0,0.0,0.0,0.0,0.0,0.0,0.0,0.0
1646244223.8925462,4977,1646244223,892172063,,0.0,0.0,0.0,0.0,0.0,0.0,0.0,0.0,0.0,0.0,0.0,0.0,0.0,-0.013115186244249344,0.01973806880414486,-0.04603138566017151,0.0,0.0,0.0,0.0,0.0,0.0,0.0,0.0,0.0,-0.08974359184503555,-0.2943589687347412,9.667179107666016,0.0,0.0,0.0,0.0,0.0,0.0,0.0,0.0,0.0
1646244223.8947353,4978,1646244223,894400125,,0.0,0.0,0.0,0.0,0.0,0.0,0.0,0.0,0.0,0.0,0.0,0.0,0.0,0.01777748018503189,-0.006893542595207691,-0.07585879415273666,0.0,0.0,0.0,0.0,0.0,0.0,0.0,0.0,0.0,-0.025128206238150597,-0.10769230872392654,9.808974266052246,0.0,0.0,0.0,0.0,0.0,0.0,0.0,0.0,0.0
1646244223.9000113,4979,1646244223,896614098,,0.0,0.0,0.0,0.0,0.0,0.0,0.0,0.0,0.0,0.0,0.0,0.0,0.0,-0.008854128420352936,-0.0005019548698328435,-0.08970722556114197,0.0,0.0,0.0,0.0,0.0,0.0,0.0,0.0,0.0,0.01794871874153614,-0.19025641679763794,9.672564506530762,0.0,0.0,0.0,0.0,0.0,0.0,0.0,0.0,0.0
1646244223.9000676,4980,1646244223,898901862,,0.0,0.0,0.0,0.0,0.0,0.0,0.0,0.0,0.0,0.0,0.0,0.0,0.0,0.004994308575987816,-0.009024071507155895,-0.047096651047468185,0.0,0.0,0.0,0.0,0.0,0.0,0.0,0.0,0.0,-0.07717949151992798,0.2674359083175659,9.625897407531738,0.0,0.0,0.0,0.0,0.0,0.0,0.0,0.0,0.0
1646244223.901438,4981,1646244223,901102544,,0.0,0.0,0.0,0.0,0.0,0.0,0.0,0.0,0.0,0.0,0.0,0.0,0.0,-0.0003320134710520506,0.02293386124074459,-0.06627141684293747,0.0,0.0,0.0,0.0,0.0,0.0,0.0,0.0,0.0,0.01974359154701233,-0.23333333432674408,9.801794052124023,0.0,0.0,0.0,0.0,0.0,0.0,0.0,0.0,0.0
1646244223.9036639,4982,1646244223,903350458,,0.0,0.0,0.0,0.0,0.0,0.0,0.0,0.0,0.0,0.0,0.0,0.0,0.0,-0.023767828941345215,0.0005633095279335976,-0.043900858610868454,0.0,0.0,0.0,0.0,0.0,0.0,0.0,0.0,0.0,-0.14179487526416779,0.026923077180981636,9.543333053588867,0.0,0.0,0.0,0.0,0.0,0.0,0.0,0.0,0.0
1646244223.90595,4983,1646244223,905569424,,0.0,0.0,0.0,0.0,0.0,0.0,0.0,0.0,0.0,0.0,0.0,0.0,0.0,-0.012049921788275242,0.0037591024301946163,-0.06627141684293747,0.0,0.0,0.0,0.0,0.0,0.0,0.0,0.0,0.0,0.0,0.15974359214305878,10.017179489135742,0.0,0.0,0.0,0.0,0.0,0.0,0.0,0.0,0.0
1646244223.908049,4984,1646244223,907758235,,0.0,0.0,0.0,0.0,0.0,0.0,0.0,0.0,0.0,0.0,0.0,0.0,0.0,0.008190101943910122,0.00588963134214282,-0.04070506617426872,0.0,0.0,0.0,0.0,0.0,0.0,0.0,0.0,0.0,-0.046666666865348816,-0.1705128252506256,9.774871826171875,0.0,0.0,0.0,0.0,0.0,0.0,0.0,0.0,0.0
1646244223.910292,4985,1646244223,909953578,,0.0,0.0,0.0,0.0,0.0,0.0,0.0,0.0,0.0,0.0,0.0,0.0,0.0,0.001798515673726797,0.0026938372757285833,-0.04816191643476486,0.0,0.0,0.0,0.0,0.0,0.0,0.0,0.0,0.0,-0.08794872462749481,0.21000000834465027,9.929230690002441,0.0,0.0,0.0,0.0,0.0,0.0,0.0,0.0,0.0
1646244223.9125865,4986,1646244223,912181915,,0.0,0.0,0.0,0.0,0.0,0.0,0.0,0.0,0.0,0.0,0.0,0.0,0.0,0.013516423292458057,0.0016285729361698031,-0.05348823964595795,0.0,0.0,0.0,0.0,0.0,0.0,0.0,0.0,0.0,0.05205128341913223,-0.06461538374423981,9.817949295043945,0.0,0.0,0.0,0.0,0.0,0.0,0.0,0.0,0.0
1646244223.9148777,4987,1646244223,914380604,,0.0,0.0,0.0,0.0,0.0,0.0,0.0,0.0,0.0,0.0,0.0,0.0,0.0,0.003929044120013714,0.027194919064641,-0.03750927746295929,0.0,0.0,0.0,0.0,0.0,0.0,0.0,0.0,0.0,-0.02153846248984337,0.19205129146575928,9.965128898620605,0.0,0.0,0.0,0.0,0.0,0.0,0.0,0.0,0.0
1646244223.9171166,4988,1646244223,916583881,,0.0,0.0,0.0,0.0,0.0,0.0,0.0,0.0,0.0,0.0,0.0,0.0,0.0,-0.0003320134710520506,0.010150688700377941,-0.03644401207566261,0.0,0.0,0.0,0.0,0.0,0.0,0.0,0.0,0.0,-0.10230769217014313,0.044871795922517776,9.817949295043945,0.0,0.0,0.0,0.0,0.0,0.0,0.0,0.0,0.0
1646244223.9192445,4989,1646244223,918788889,,0.0,0.0,0.0,0.0,0.0,0.0,0.0,0.0,0.0,0.0,0.0,0.0,0.0,0.008190101943910122,0.006954895332455635,-0.043900858610868454,0.0,0.0,0.0,0.0,0.0,0.0,0.0,0.0,0.0,-0.010769231244921684,-0.12025640904903412,9.873589515686035,0.0,0.0,0.0,0.0,0.0,0.0,0.0,0.0,0.0
1646244223.9215462,4990,1646244223,921074795,,0.0,0.0,0.0,0.0,0.0,0.0,0.0,0.0,0.0,0.0,0.0,0.0,0.0,0.006059573031961918,-0.007958807051181793,-0.07372826337814331,0.0,0.0,0.0,0.0,0.0,0.0,0.0,0.0,0.0,-0.08974359184503555,0.0412820540368557,9.715641021728516,0.0,0.0,0.0,0.0,0.0,0.0,0.0,0.0,0.0
1646244223.9237924,4991,1646244223,923353537,,0.0,0.0,0.0,0.0,0.0,0.0,0.0,0.0,0.0,0.0,0.0,0.0,0.0,0.001798515673726797,-0.0005019548698328435,-0.03750927746295929,0.0,0.0,0.0,0.0,0.0,0.0,0.0,0.0,0.0,0.00897435937076807,0.08076923340559006,9.812564849853516,0.0,0.0,0.0,0.0,0.0,0.0,0.0,0.0,0.0
1646244223.9259117,4992,1646244223,925577790,,0.0,0.0,0.0,0.0,0.0,0.0,0.0,0.0,0.0,0.0,0.0,0.0,0.0,-0.0077888634987175465,0.018672803416848183,-0.05242297425866127,0.0,0.0,0.0,0.0,0.0,0.0,0.0,0.0,0.0,-0.1148717999458313,0.25128206610679626,9.814358711242676,0.0,0.0,0.0,0.0,0.0,0.0,0.0,0.0,0.0
1646244223.928102,4993,1646244223,927786497,,0.0,0.0,0.0,0.0,0.0,0.0,0.0,0.0,0.0,0.0,0.0,0.0,0.0,0.008190101943910122,-0.0047630127519369125,-0.03431348130106926,0.0,0.0,0.0,0.0,0.0,0.0,0.0,0.0,0.0,-0.07000000029802322,-0.06102564185857773,9.685128211975098,0.0,0.0,0.0,0.0,0.0,0.0,0.0,0.0,0.0
1646244223.9305549,4994,1646244223,930087686,,0.0,0.0,0.0,0.0,0.0,0.0,0.0,0.0,0.0,0.0,0.0,0.0,0.0,-0.013115186244249344,0.015477010980248451,-0.006616605911403894,0.0,0.0,0.0,0.0,0.0,0.0,0.0,0.0,0.0,-0.21358974277973175,0.17589744925498962,9.907692909240723,0.0,0.0,0.0,0.0,0.0,0.0,0.0,0.0,0.0
1646244223.932967,4995,1646244223,932335255,,0.0,0.0,0.0,0.0,0.0,0.0,0.0,0.0,0.0,0.0,0.0,0.0,0.0,0.001798515673726797,0.004824366886168718,-0.05242297425866127,0.0,0.0,0.0,0.0,0.0,0.0,0.0,0.0,0.0,-0.19205129146575928,-0.12923076748847961,9.785640716552734,0.0,0.0,0.0,0.0,0.0,0.0,0.0,0.0,0.0
1646244223.934853,4996,1646244223,934563808,,0.0,0.0,0.0,0.0,0.0,0.0,0.0,0.0,0.0,0.0,0.0,0.0,0.0,-0.019506771117448807,0.01973806880414486,-0.02685662917792797,0.0,0.0,0.0,0.0,0.0,0.0,0.0,0.0,0.0,-0.12205128371715546,-0.026923077180981636,9.837692260742188,0.0,0.0,0.0,0.0,0.0,0.0,0.0,0.0,0.0
1646244223.937176,4997,1646244223,936766052,,0.0,0.0,0.0,0.0,0.0,0.0,0.0,0.0,0.0,0.0,0.0,0.0,0.0,0.008190101943910122,0.027194919064641,-0.017269250005483627,0.0,0.0,0.0,0.0,0.0,0.0,0.0,0.0,0.0,-0.05923077091574669,0.0825641080737114,9.857436180114746,0.0,0.0,0.0,0.0,0.0,0.0,0.0,0.0,0.0
1646244223.9403634,4998,1646244223,939005524,,0.0,0.0,0.0,0.0,0.0,0.0,0.0,0.0,0.0,0.0,0.0,0.0,0.0,-0.019506771117448807,0.017607539892196655,-0.009812399744987488,0.0,0.0,0.0,0.0,0.0,0.0,0.0,0.0,0.0,-0.16153846681118011,0.007179487496614456,9.64384651184082,0.0,0.0,0.0,0.0,0.0,0.0,0.0,0.0,0.0
1646244223.9414988,4999,1646244223,941209677,,0.0,0.0,0.0,0.0,0.0,0.0,0.0,0.0,0.0,0.0,0.0,0.0,0.0,0.00712483748793602,-0.0047630127519369125,-0.05029244348406792,0.0,0.0,0.0,0.0,0.0,0.0,0.0,0.0,0.0,0.012564103119075298,0.1238461583852768,10.049487113952637,0.0,0.0,0.0,0.0,0.0,0.0,0.0,0.0,0.0
1646244223.9439418,5000,1646244223,943451955,,0.0,0.0,0.0,0.0,0.0,0.0,0.0,0.0,0.0,0.0,0.0,0.0,0.0,0.013516423292458057,0.01973806880414486,0.02001500315964222,0.0,0.0,0.0,0.0,0.0,0.0,0.0,0.0,0.0,-0.08794872462749481,-0.05025641247630119,9.697691917419434,0.0,0.0,0.0,0.0,0.0,0.0,0.0,0.0,0.0
1646244223.946073,5001,1646244223,945665772,,0.0,0.0,0.0,0.0,0.0,0.0,0.0,0.0,0.0,0.0,0.0,0.0,0.0,-0.009919392876327038,0.020803332328796387,0.0008402442326769233,0.0,0.0,0.0,0.0,0.0,0.0,0.0,0.0,0.0,0.023333333432674408,0.42538464069366455,9.701282501220703,0.0,0.0,0.0,0.0,0.0,0.0,0.0,0.0,0.0
1646244223.948537,5002,1646244223,947903124,,0.0,0.0,0.0,0.0,0.0,0.0,0.0,0.0,0.0,0.0,0.0,0.0,0.0,-0.0024625419173389673,-0.006893542595207691,-0.0162039864808321,0.0,0.0,0.0,0.0,0.0,0.0,0.0,0.0,0.0,0.22435897588729858,-0.016153845936059952,9.722820281982422,0.0,0.0,0.0,0.0,0.0,0.0,0.0,0.0,0.0
1646244223.9506161,5003,1646244223,950163876,,0.0,0.0,0.0,0.0,0.0,0.0,0.0,0.0,0.0,0.0,0.0,0.0,0.0,0.0028637798968702555,0.0037591024301946163,-0.006616605911403894,0.0,0.0,0.0,0.0,0.0,0.0,0.0,0.0,0.0,0.16153846681118011,0.4541025757789612,9.715641021728516,0.0,0.0,0.0,0.0,0.0,0.0,0.0,0.0,0.0
1646244223.952695,5004,1646244223,952386725,,0.0,0.0,0.0,0.0,0.0,0.0,0.0,0.0,0.0,0.0,0.0,0.0,0.0,-0.024833092465996742,0.03358650580048561,0.022145532071590424,0.0,0.0,0.0,0.0,0.0,0.0,0.0,0.0,0.0,0.15256410837173462,-0.044871795922517776,9.602563858032227,0.0,0.0,0.0,0.0,0.0,0.0,0.0,0.0,0.0
1646244223.9549885,5005,1646244223,954610366,,0.0,0.0,0.0,0.0,0.0,0.0,0.0,0.0,0.0,0.0,0.0,0.0,0.0,0.0103206317871809,-0.0015672193840146065,0.025341326370835304,0.0,0.0,0.0,0.0,0.0,0.0,0.0,0.0,0.0,0.11307692527770996,0.010769231244921684,9.579231262207031,0.0,0.0,0.0,0.0,0.0,0.0,0.0,0.0,0.0
1646244223.957151,5006,1646244223,956853882,,0.0,0.0,0.0,0.0,0.0,0.0,0.0,0.0,0.0,0.0,0.0,0.0,0.0,0.00712483748793602,-0.01967671327292919,0.009362359531223774,0.0,0.0,0.0,0.0,0.0,0.0,0.0,0.0,0.0,0.16333334147930145,0.28179487586021423,9.993846893310547,0.0,0.0,0.0,0.0,0.0,0.0,0.0,0.0,0.0
1646244223.959476,5007,1646244223,959096614,,0.0,0.0,0.0,0.0,0.0,0.0,0.0,0.0,0.0,0.0,0.0,0.0,0.0,0.0007332512177526951,-0.0036977482959628105,0.0232107974588871,0.0,0.0,0.0,0.0,0.0,0.0,0.0,0.0,0.0,-0.01794871874153614,-0.06282051652669907,9.70846176147461,0.0,0.0,0.0,0.0,0.0,0.0,0.0,0.0,0.0
1646244223.9617257,5008,1646244223,961342636,,0.0,0.0,0.0,0.0,0.0,0.0,0.0,0.0,0.0,0.0,0.0,0.0,0.0,-0.0003320134710520506,-0.009024071507155895,0.002970772795379162,0.0,0.0,0.0,0.0,0.0,0.0,0.0,0.0,0.0,0.03410256281495094,0.3266666829586029,10.027949333190918,0.0,0.0,0.0,0.0,0.0,0.0,0.0,0.0,0.0
1646244223.9640303,5009,1646244223,963642040,,0.0,0.0,0.0,0.0,0.0,0.0,0.0,0.0,0.0,0.0,0.0,0.0,0.0,0.006059573031961918,-0.018611449748277664,0.02640658989548683,0.0,0.0,0.0,0.0,0.0,0.0,0.0,0.0,0.0,0.17589744925498962,0.11128205060958862,9.721025466918945,0.0,0.0,0.0,0.0,0.0,0.0,0.0,0.0,0.0
1646244223.9663796,5010,1646244223,965903089,,0.0,0.0,0.0,0.0,0.0,0.0,0.0,0.0,0.0,0.0,0.0,0.0,0.0,0.003929044120013714,-0.02287250943481922,0.04025502875447273,0.0,0.0,0.0,0.0,0.0,0.0,0.0,0.0,0.0,0.016153845936059952,-0.02153846248984337,9.808974266052246,0.0,0.0,0.0,0.0,0.0,0.0,0.0,0.0,0.0
1646244223.9685013,5011,1646244223,968110837,,0.0,0.0,0.0,0.0,0.0,0.0,0.0,0.0,0.0,0.0,0.0,0.0,0.0,0.008190101943910122,0.0016285729361698031,0.028537116944789886,0.0,0.0,0.0,0.0,0.0,0.0,0.0,0.0,0.0,-0.19205129146575928,0.2674359083175659,9.963333129882812,0.0,0.0,0.0,0.0,0.0,0.0,0.0,0.0,0.0
1646244223.970792,5012,1646244223,970350026,,0.0,0.0,0.0,0.0,0.0,0.0,0.0,0.0,0.0,0.0,0.0,0.0,0.0,-0.015245715156197548,-0.015415656380355358,0.01681920886039734,0.0,0.0,0.0,0.0,0.0,0.0,0.0,0.0,0.0,-0.023333333432674408,0.1651282161474228,9.8610258102417,0.0,0.0,0.0,0.0,0.0,0.0,0.0,0.0,0.0
1646244223.9729147,5013,1646244223,972604996,,0.0,0.0,0.0,0.0,0.0,0.0,0.0,0.0,0.0,0.0,0.0,0.0,0.0,-0.01098465733230114,-0.03139462321996689,0.04025502875447273,0.0,0.0,0.0,0.0,0.0,0.0,0.0,0.0,0.0,0.05923077091574669,0.18487180769443512,9.914872169494629,0.0,0.0,0.0,0.0,0.0,0.0,0.0,0.0,0.0
1646244223.975449,5014,1646244223,974843936,,0.0,0.0,0.0,0.0,0.0,0.0,0.0,0.0,0.0,0.0,0.0,0.0,0.0,0.011385894380509853,-0.035655677318573,-0.01087766420096159,0.0,0.0,0.0,0.0,0.0,0.0,0.0,0.0,0.0,0.046666666865348816,0.05025641247630119,9.726409912109375,0.0,0.0,0.0,0.0,0.0,0.0,0.0,0.0,0.0
1646244223.9774487,5015,1646244223,977044143,,0.0,0.0,0.0,0.0,0.0,0.0,0.0,0.0,0.0,0.0,0.0,0.0,0.0,-0.0003320134710520506,-0.009024071507155895,0.06262557953596115,0.0,0.0,0.0,0.0,0.0,0.0,0.0,0.0,0.0,0.12564103305339813,0.2153846174478531,9.839487075805664,0.0,0.0,0.0,0.0,0.0,0.0,0.0,0.0,0.0
1646244223.9797597,5016,1646244223,979435136,,0.0,0.0,0.0,0.0,0.0,0.0,0.0,0.0,0.0,0.0,0.0,0.0,0.0,-0.01098465733230114,-0.006893542595207691,0.039189763367176056,0.0,0.0,0.0,0.0,0.0,0.0,0.0,0.0,0.0,0.0825641080737114,0.2441025674343109,9.93820571899414,0.0,0.0,0.0,0.0,0.0,0.0,0.0,0.0,0.0
1646244223.982991,5017,1646244223,981700573,,0.0,0.0,0.0,0.0,0.0,0.0,0.0,0.0,0.0,0.0,0.0,0.0,0.0,0.004994308575987816,0.0026938372757285833,0.032798174768686295,0.0,0.0,0.0,0.0,0.0,0.0,0.0,0.0,0.0,0.14358974993228912,0.001794871874153614,9.771282196044922,0.0,0.0,0.0,0.0,0.0,0.0,0.0,0.0,0.0
1646244223.9842243,5018,1646244223,983921618,,0.0,0.0,0.0,0.0,0.0,0.0,0.0,0.0,0.0,0.0,0.0,0.0,0.0,-0.008854128420352936,0.0005633095279335976,0.018949739634990692,0.0,0.0,0.0,0.0,0.0,0.0,0.0,0.0,0.0,0.20820513367652893,0.4002564251422882,9.663589477539062,0.0,0.0,0.0,0.0,0.0,0.0,0.0,0.0,0.0
1646244223.986476,5019,1646244223,986156965,,0.0,0.0,0.0,0.0,0.0,0.0,0.0,0.0,0.0,0.0,0.0,0.0,0.0,-0.0077888634987175465,-0.028198830783367157,0.05942978337407112,0.0,0.0,0.0,0.0,0.0,0.0,0.0,0.0,0.0,0.3266666829586029,-0.032307691872119904,9.598974227905273,0.0,0.0,0.0,0.0,0.0,0.0,0.0,0.0,0.0
1646244223.9887345,5020,1646244223,988382120,,0.0,0.0,0.0,0.0,0.0,0.0,0.0,0.0,0.0,0.0,0.0,0.0,0.0,-0.0003320134710520506,-0.01967671327292919,0.037059236317873,0.0,0.0,0.0,0.0,0.0,0.0,0.0,0.0,0.0,0.1884615421295166,0.43794873356819153,9.724615097045898,0.0,0.0,0.0,0.0,0.0,0.0,0.0,0.0,0.0
1646244223.9911199,5021,1646244223,990630690,,0.0,0.0,0.0,0.0,0.0,0.0,0.0,0.0,0.0,0.0,0.0,0.0,0.0,0.0103206317871809,-0.012219863012433052,0.043450821191072464,0.0,0.0,0.0,0.0,0.0,0.0,0.0,0.0,0.0,0.2764102518558502,0.1328205168247223,9.918461799621582,0.0,0.0,0.0,0.0,0.0,0.0,0.0,0.0,0.0
1646244223.9933112,5022,1646244223,992896485,,0.0,0.0,0.0,0.0,0.0,0.0,0.0,0.0,0.0,0.0,0.0,0.0,0.0,0.01777748018503189,-0.01648092083632946,0.024276060983538628,0.0,0.0,0.0,0.0,0.0,0.0,0.0,0.0,0.0,0.15435898303985596,0.12025640904903412,9.798205375671387,0.0,0.0,0.0,0.0,0.0,0.0,0.0,0.0,0.0
1646244223.995529,5023,1646244223,995186181,,0.0,0.0,0.0,0.0,0.0,0.0,0.0,0.0,0.0,0.0,0.0,0.0,0.0,0.027364861220121384,-0.03032935969531536,0.04025502875447273,0.0,0.0,0.0,0.0,0.0,0.0,0.0,0.0,0.0,0.21897436678409576,0.19564102590084076,10.031538009643555,0.0,0.0,0.0,0.0,0.0,0.0,0.0,0.0,0.0
1646244223.998873,5024,1646244223,997428629,,0.0,0.0,0.0,0.0,0.0,0.0,0.0,0.0,0.0,0.0,0.0,0.0,0.0,0.02097327448427677,-0.0047630127519369125,0.06795190274715424,0.0,0.0,0.0,0.0,0.0,0.0,0.0,0.0,0.0,0.3087179660797119,0.04307692497968674,9.613333702087402,0.0,0.0,0.0,0.0,0.0,0.0,0.0,0.0,0.0
1646244223.9999146,5025,1646244223,999648958,,0.0,0.0,0.0,0.0,0.0,0.0,0.0,0.0,0.0,0.0,0.0,0.0,0.0,0.016712216660380363,-0.007958807051181793,0.05197293311357498,0.0,0.0,0.0,0.0,0.0,0.0,0.0,0.0,0.0,0.27820512652397156,0.33743590116500854,9.764102935791016,0.0,0.0,0.0,0.0,0.0,0.0,0.0,0.0,0.0
1646244224.0021348,5026,1646244224,1863636,,0.0,0.0,0.0,0.0,0.0,0.0,0.0,0.0,0.0,0.0,0.0,0.0,0.0,-0.0003320134710520506,-0.0015672193840146065,0.08712666481733322,0.0,0.0,0.0,0.0,0.0,0.0,0.0,0.0,0.0,0.34282052516937256,-0.08794872462749481,9.667179107666016,0.0,0.0,0.0,0.0,0.0,0.0,0.0,0.0,0.0
1646244224.0043857,5027,1646244224,4084642,,0.0,0.0,0.0,0.0,0.0,0.0,0.0,0.0,0.0,0.0,0.0,0.0,0.0,0.038017503917217255,-0.012219863012433052,0.061560314148664474,0.0,0.0,0.0,0.0,0.0,0.0,0.0,0.0,0.0,0.23512820899486542,0.39846155047416687,9.808974266052246,0.0,0.0,0.0,0.0,0.0,0.0,0.0,0.0,0.0
1646244224.0067372,5028,1646244224,6318381,,0.0,0.0,0.0,0.0,0.0,0.0,0.0,0.0,0.0,0.0,0.0,0.0,0.0,0.0103206317871809,-0.021807242184877396,0.04984240233898163,0.0,0.0,0.0,0.0,0.0,0.0,0.0,0.0,0.0,0.00897435937076807,-0.05384615436196327,10.011795043945312,0.0,0.0,0.0,0.0,0.0,0.0,0.0,0.0,0.0
1646244224.0089843,5029,1646244224,8590854,,0.0,0.0,0.0,0.0,0.0,0.0,0.0,0.0,0.0,0.0,0.0,0.0,0.0,0.00925536546856165,-0.010089334100484848,0.05516872555017471,0.0,0.0,0.0,0.0,0.0,0.0,0.0,0.0,0.0,-0.19384616613388062,0.01794871874153614,10.002820014953613,0.0,0.0,0.0,0.0,0.0,0.0,0.0,0.0,0.0
1646244224.011355,5030,1646244224,10871185,,0.0,0.0,0.0,0.0,0.0,0.0,0.0,0.0,0.0,0.0,0.0,0.0,0.0,-0.0067235990427434444,-0.0026324838399887085,0.08073507994413376,0.0,0.0,0.0,0.0,0.0,0.0,0.0,0.0,0.0,-0.12743589282035828,0.1651282161474228,9.932821273803711,0.0,0.0,0.0,0.0,0.0,0.0,0.0,0.0,0.0
1646244224.0135543,5031,1646244224,13171575,,0.0,0.0,0.0,0.0,0.0,0.0,0.0,0.0,0.0,0.0,0.0,0.0,0.0,-0.017376242205500603,0.0005633095279335976,0.06795190274715424,0.0,0.0,0.0,0.0,0.0,0.0,0.0,0.0,0.0,-0.13461539149284363,-0.16333334147930145,9.89512825012207,0.0,0.0,0.0,0.0,0.0,0.0,0.0,0.0,0.0
1646244224.0160708,5032,1646244224,15371563,,0.0,0.0,0.0,0.0,0.0,0.0,0.0,0.0,0.0,0.0,0.0,0.0,0.0,0.015646953135728836,0.010150688700377941,0.06901716440916061,0.0,0.0,0.0,0.0,0.0,0.0,0.0,0.0,0.0,-0.2800000011920929,0.16333334147930145,10.029743194580078,0.0,0.0,0.0,0.0,0.0,0.0,0.0,0.0,0.0
1646244224.0179412,5033,1646244224,17594030,,0.0,0.0,0.0,0.0,0.0,0.0,0.0,0.0,0.0,0.0,0.0,0.0,0.0,-0.015245715156197548,0.011215953156352043,0.04771187901496887,0.0,0.0,0.0,0.0,0.0,0.0,0.0,0.0,0.0,-0.001794871874153614,-0.2800000011920929,9.532564163208008,0.0,0.0,0.0,0.0,0.0,0.0,0.0,0.0,0.0
1646244224.0202198,5034,1646244224,19800736,,0.0,0.0,0.0,0.0,0.0,0.0,0.0,0.0,0.0,0.0,0.0,0.0,0.0,-0.016310978680849075,0.027194919064641,0.0786045491695404,0.0,0.0,0.0,0.0,0.0,0.0,0.0,0.0,0.0,0.007179487496614456,-0.012564103119075298,9.90410327911377,0.0,0.0,0.0,0.0,0.0,0.0,0.0,0.0,0.0
1646244224.0226958,5035,1646244224,22071471,,0.0,0.0,0.0,0.0,0.0,0.0,0.0,0.0,0.0,0.0,0.0,0.0,0.0,-0.0077888634987175465,0.00588963134214282,0.06901716440916061,0.0,0.0,0.0,0.0,0.0,0.0,0.0,0.0,0.0,-0.01794871874153614,0.05384615436196327,9.588204383850098,0.0,0.0,0.0,0.0,0.0,0.0,0.0,0.0,0.0
1646244224.026213,5036,1646244224,24549849,,0.0,0.0,0.0,0.0,0.0,0.0,0.0,0.0,0.0,0.0,0.0,0.0,0.0,-0.008854128420352936,0.017607539892196655,0.054103460162878036,0.0,0.0,0.0,0.0,0.0,0.0,0.0,0.0,0.0,0.17230769991874695,-0.28179487586021423,9.371026039123535,0.0,0.0,0.0,0.0,0.0,0.0,0.0,0.0,0.0
1646244224.0271175,5037,1646244224,26773720,,0.0,0.0,0.0,0.0,0.0,0.0,0.0,0.0,0.0,0.0,0.0,0.0,0.0,-0.017376242205500603,0.03678229823708534,0.07008243352174759,0.0,0.0,0.0,0.0,0.0,0.0,0.0,0.0,0.0,0.29076921939849854,0.07538461685180664,9.618718147277832,0.0,0.0,0.0,0.0,0.0,0.0,0.0,0.0,0.0
1646244224.0293536,5038,1646244224,29002877,,0.0,0.0,0.0,0.0,0.0,0.0,0.0,0.0,0.0,0.0,0.0,0.0,0.0,-0.023767828941345215,0.032521240413188934,0.08286560326814651,0.0,0.0,0.0,0.0,0.0,0.0,0.0,0.0,0.0,0.026923077180981636,-0.16871795058250427,9.65999984741211,0.0,0.0,0.0,0.0,0.0,0.0,0.0,0.0,0.0
1646244224.0316117,5039,1646244224,31263719,,0.0,0.0,0.0,0.0,0.0,0.0,0.0,0.0,0.0,0.0,0.0,0.0,0.0,-0.026963621377944946,0.028260184451937675,0.04451608657836914,0.0,0.0,0.0,0.0,0.0,0.0,0.0,0.0,0.0,-0.02153846248984337,0.15076923370361328,10.027949333190918,0.0,0.0,0.0,0.0,0.0,0.0,0.0,0.0,0.0
1646244224.0338259,5040,1646244224,33468185,,0.0,0.0,0.0,0.0,0.0,0.0,0.0,0.0,0.0,0.0,0.0,0.0,0.0,-0.01098465733230114,0.01654227450489998,0.07327822595834732,0.0,0.0,0.0,0.0,0.0,0.0,0.0,0.0,0.0,0.17230769991874695,-0.1651282161474228,9.787436485290527,0.0,0.0,0.0,0.0,0.0,0.0,0.0,0.0,0.0
1646244224.0360107,5041,1646244224,35677606,,0.0,0.0,0.0,0.0,0.0,0.0,0.0,0.0,0.0,0.0,0.0,0.0,0.0,-0.03228994458913803,0.01654227450489998,0.046646613627672195,0.0,0.0,0.0,0.0,0.0,0.0,0.0,0.0,0.0,0.10230769217014313,-0.09871795028448105,9.744359016418457,0.0,0.0,0.0,0.0,0.0,0.0,0.0,0.0,0.0
1646244224.0381768,5042,1646244224,37871099,,0.0,0.0,0.0,0.0,0.0,0.0,0.0,0.0,0.0,0.0,0.0,0.0,0.0,0.003929044120013714,0.0037591024301946163,0.04558135196566582,0.0,0.0,0.0,0.0,0.0,0.0,0.0,0.0,0.0,0.23333333432674408,-0.06461538374423981,9.631281852722168,0.0,0.0,0.0,0.0,0.0,0.0,0.0,0.0,0.0
1646244224.0405664,5043,1646244224,40105623,,0.0,0.0,0.0,0.0,0.0,0.0,0.0,0.0,0.0,0.0,0.0,0.0,0.0,-0.009919392876327038,-0.020741978660225868,0.04984240233898163,0.0,0.0,0.0,0.0,0.0,0.0,0.0,0.0,0.0,0.3141025900840759,-0.26025640964508057,9.563076972961426,0.0,0.0,0.0,0.0,0.0,0.0,0.0,0.0,0.0
1646244224.0427032,5044,1646244224,42328346,,0.0,0.0,0.0,0.0,0.0,0.0,0.0,0.0,0.0,0.0,0.0,0.0,0.0,-0.03228994458913803,0.0005633095279335976,0.02001500315964222,0.0,0.0,0.0,0.0,0.0,0.0,0.0,0.0,0.0,-0.1148717999458313,0.07538461685180664,9.993846893310547,0.0,0.0,0.0,0.0,0.0,0.0,0.0,0.0,0.0
1646244224.0449595,5045,1646244224,44603111,,0.0,0.0,0.0,0.0,0.0,0.0,0.0,0.0,0.0,0.0,0.0,0.0,0.0,-0.004593071062117815,0.0005633095279335976,0.00723183061927557,0.0,0.0,0.0,0.0,0.0,0.0,0.0,0.0,0.0,0.16871795058250427,-0.3266666829586029,9.563076972961426,0.0,0.0,0.0,0.0,0.0,0.0,0.0,0.0,0.0
1646244224.0472937,5046,1646244224,46912705,,0.0,0.0,0.0,0.0,0.0,0.0,0.0,0.0,0.0,0.0,0.0,0.0,0.0,-0.02589835785329342,-0.02287250943481922,0.01681920886039734,0.0,0.0,0.0,0.0,0.0,0.0,0.0,0.0,0.0,-0.17769230902194977,0.10410256683826447,9.972307205200195,0.0,0.0,0.0,0.0,0.0,0.0,0.0,0.0,0.0
1646244224.049576,5047,1646244224,49184353,,0.0,0.0,0.0,0.0,0.0,0.0,0.0,0.0,0.0,0.0,0.0,0.0,0.0,-0.0003320134710520506,0.0037591024301946163,-0.0012902843300253153,0.0,0.0,0.0,0.0,0.0,0.0,0.0,0.0,0.0,-0.012564103119075298,-0.2441025674343109,9.365640640258789,0.0,0.0,0.0,0.0,0.0,0.0,0.0,0.0,0.0
1646244224.0518227,5048,1646244224,51459135,,0.0,0.0,0.0,0.0,0.0,0.0,0.0,0.0,0.0,0.0,0.0,0.0,0.0,-0.0035278063733130693,-0.025003038346767426,0.0232107974588871,0.0,0.0,0.0,0.0,0.0,0.0,0.0,0.0,0.0,-0.044871795922517776,-0.001794871874153614,9.500256538391113,0.0,0.0,0.0,0.0,0.0,0.0,0.0,0.0,0.0
1646244224.0539672,5049,1646244224,53677776,,0.0,0.0,0.0,0.0,0.0,0.0,0.0,0.0,0.0,0.0,0.0,0.0,0.0,0.016712216660380363,-0.006893542595207691,-0.03644401207566261,0.0,0.0,0.0,0.0,0.0,0.0,0.0,0.0,0.0,-0.07897436618804932,-0.005384615622460842,9.681538581848145,0.0,0.0,0.0,0.0,0.0,0.0,0.0,0.0,0.0
1646244224.0563745,5050,1646244224,55968066,,0.0,0.0,0.0,0.0,0.0,0.0,0.0,0.0,0.0,0.0,0.0,0.0,0.0,-0.0013972773449495435,-0.0036977482959628105,0.0019055086886510253,0.0,0.0,0.0,0.0,0.0,0.0,0.0,0.0,0.0,-0.35179489850997925,-0.22256410121917725,9.731794357299805,0.0,0.0,0.0,0.0,0.0,0.0,0.0,0.0,0.0
1646244224.0587287,5051,1646244224,58293759,,0.0,0.0,0.0,0.0,0.0,0.0,0.0,0.0,0.0,0.0,0.0,0.0,0.0,0.003929044120013714,0.012281217612326145,-0.028987158089876175,0.0,0.0,0.0,0.0,0.0,0.0,0.0,0.0,0.0,-0.3141025900840759,0.07179487496614456,10.277436256408691,0.0,0.0,0.0,0.0,0.0,0.0,0.0,0.0,0.0
1646244224.0608826,5052,1646244224,60561008,,0.0,0.0,0.0,0.0,0.0,0.0,0.0,0.0,0.0,0.0,0.0,0.0,0.0,-0.0003320134710520506,-0.014350391924381256,-0.022595571354031563,0.0,0.0,0.0,0.0,0.0,0.0,0.0,0.0,0.0,-0.43794873356819153,-0.4038461744785309,9.516409873962402,0.0,0.0,0.0,0.0,0.0,0.0,0.0,0.0,0.0
1646244224.063305,5053,1646244224,62837106,,0.0,0.0,0.0,0.0,0.0,0.0,0.0,0.0,0.0,0.0,0.0,0.0,0.0,0.003929044120013714,0.02612965553998947,-0.03644401207566261,0.0,0.0,0.0,0.0,0.0,0.0,0.0,0.0,0.0,-0.12923076748847961,-0.15974359214305878,9.886154174804688,0.0,0.0,0.0,0.0,0.0,0.0,0.0,0.0,0.0
1646244224.0668173,5054,1646244224,65097082,,0.0,0.0,0.0,0.0,0.0,0.0,0.0,0.0,0.0,0.0,0.0,0.0,0.0,-0.0077888634987175465,-0.0047630127519369125,-0.030052425339818,0.0,0.0,0.0,0.0,0.0,0.0,0.0,0.0,0.0,0.10230769217014313,-0.3320513069629669,9.3889741897583,0.0,0.0,0.0,0.0,0.0,0.0,0.0,0.0,0.0
1646244224.067689,5055,1646244224,67343648,,0.0,0.0,0.0,0.0,0.0,0.0,0.0,0.0,0.0,0.0,0.0,0.0,0.0,0.00712483748793602,-0.0026324838399887085,-0.043900858610868454,0.0,0.0,0.0,0.0,0.0,0.0,0.0,0.0,0.0,-0.016153845936059952,-0.016153845936059952,9.631281852722168,0.0,0.0,0.0,0.0,0.0,0.0,0.0,0.0,0.0
1646244224.0698843,5056,1646244224,69567070,,0.0,0.0,0.0,0.0,0.0,0.0,0.0,0.0,0.0,0.0,0.0,0.0,0.0,-0.0067235990427434444,0.0037591024301946163,-0.051357708871364594,0.0,0.0,0.0,0.0,0.0,0.0,0.0,0.0,0.0,0.06820512562990189,-0.10948718339204788,9.683333396911621,0.0,0.0,0.0,0.0,0.0,0.0,0.0,0.0,0.0
1646244224.072075,5057,1646244224,71788807,,0.0,0.0,0.0,0.0,0.0,0.0,0.0,0.0,0.0,0.0,0.0,0.0,0.0,0.02843012474477291,0.00588963134214282,-0.0417703278362751,0.0,0.0,0.0,0.0,0.0,0.0,0.0,0.0,0.0,-0.12564103305339813,-0.3320513069629669,9.656410217285156,0.0,0.0,0.0,0.0,0.0,0.0,0.0,0.0,0.0
1646244224.074435,5058,1646244224,73995769,,0.0,0.0,0.0,0.0,0.0,0.0,0.0,0.0,0.0,0.0,0.0,0.0,0.0,0.00712483748793602,-0.009024071507155895,-0.0790545865893364,0.0,0.0,0.0,0.0,0.0,0.0,0.0,0.0,0.0,-0.2674359083175659,0.1382051259279251,10.196666717529297,0.0,0.0,0.0,0.0,0.0,0.0,0.0,0.0,0.0
1646244224.0765169,5059,1646244224,76196372,,0.0,0.0,0.0,0.0,0.0,0.0,0.0,0.0,0.0,0.0,0.0,0.0,0.0,0.018842745572328568,0.004824366886168718,-0.06627141684293747,0.0,0.0,0.0,0.0,0.0,0.0,0.0,0.0,0.0,-0.10410256683826447,-0.17769230902194977,9.85025691986084,0.0,0.0,0.0,0.0,0.0,0.0,0.0,0.0,0.0
1646244224.078869,5060,1646244224,78426317,,0.0,0.0,0.0,0.0,0.0,0.0,0.0,0.0,0.0,0.0,0.0,0.0,0.0,0.001798515673726797,-0.005828278139233589,-0.057749297469854355,0.0,0.0,0.0,0.0,0.0,0.0,0.0,0.0,0.0,0.048461541533470154,0.1328205168247223,9.633076667785645,0.0,0.0,0.0,0.0,0.0,0.0,0.0,0.0,0.0
1646244224.08108,5061,1646244224,80683255,,0.0,0.0,0.0,0.0,0.0,0.0,0.0,0.0,0.0,0.0,0.0,0.0,0.0,0.00925536546856165,0.00588963134214282,-0.06307561695575714,0.0,0.0,0.0,0.0,0.0,0.0,0.0,0.0,0.0,0.25128206610679626,-0.21717949211597443,9.45358943939209,0.0,0.0,0.0,0.0,0.0,0.0,0.0,0.0,0.0
1646244224.0832822,5062,1646244224,82967318,,0.0,0.0,0.0,0.0,0.0,0.0,0.0,0.0,0.0,0.0,0.0,0.0,0.0,-0.016310978680849075,-0.01967671327292919,-0.05029244348406792,0.0,0.0,0.0,0.0,0.0,0.0,0.0,0.0,0.0,-0.15076923370361328,-0.1238461583852768,10.013589859008789,0.0,0.0,0.0,0.0,0.0,0.0,0.0,0.0,0.0
1646244224.0866141,5063,1646244224,85170542,,0.0,0.0,0.0,0.0,0.0,0.0,0.0,0.0,0.0,0.0,0.0,0.0,0.0,0.0028637798968702555,0.012281217612326145,-0.06627141684293747,0.0,0.0,0.0,0.0,0.0,0.0,0.0,0.0,0.0,-0.22435897588729858,0.07538461685180664,10.171539306640625,0.0,0.0,0.0,0.0,0.0,0.0,0.0,0.0,0.0
1646244224.0877395,5064,1646244224,87434473,,0.0,0.0,0.0,0.0,0.0,0.0,0.0,0.0,0.0,0.0,0.0,0.0,0.0,0.008190101943910122,0.02293386124074459,-0.04603138566017151,0.0,0.0,0.0,0.0,0.0,0.0,0.0,0.0,0.0,-0.09333333373069763,-0.3302564322948456,9.618718147277832,0.0,0.0,0.0,0.0,0.0,0.0,0.0,0.0,0.0
1646244224.090041,5065,1646244224,89693718,,0.0,0.0,0.0,0.0,0.0,0.0,0.0,0.0,0.0,0.0,0.0,0.0,0.0,-0.02163730002939701,0.0037591024301946163,-0.0790545865893364,0.0,0.0,0.0,0.0,0.0,0.0,0.0,0.0,0.0,0.07897436618804932,0.20820513367652893,9.60615348815918,0.0,0.0,0.0,0.0,0.0,0.0,0.0,0.0,0.0
1646244224.0924084,5066,1646244224,91909872,,0.0,0.0,0.0,0.0,0.0,0.0,0.0,0.0,0.0,0.0,0.0,0.0,0.0,0.026299597695469856,-0.0026324838399887085,-0.060945089906454086,0.0,0.0,0.0,0.0,0.0,0.0,0.0,0.0,0.0,0.25846153497695923,-0.41641026735305786,9.383589744567871,0.0,0.0,0.0,0.0,0.0,0.0,0.0,0.0,0.0
1646244224.0945263,5067,1646244224,94144417,,0.0,0.0,0.0,0.0,0.0,0.0,0.0,0.0,0.0,0.0,0.0,0.0,0.0,-0.012049921788275242,0.009085424244403839,-0.05029244348406792,0.0,0.0,0.0,0.0,0.0,0.0,0.0,0.0,0.0,0.17589744925498962,0.10051282495260239,9.672564506530762,0.0,0.0,0.0,0.0,0.0,0.0,0.0,0.0,0.0
1646244224.0967991,5068,1646244224,96384960,,0.0,0.0,0.0,0.0,0.0,0.0,0.0,0.0,0.0,0.0,0.0,0.0,0.0,-0.0077888634987175465,0.012281217612326145,-0.05987982451915741,0.0,0.0,0.0,0.0,0.0,0.0,0.0,0.0,0.0,-0.06820512562990189,-0.23333333432674408,9.668973922729492,0.0,0.0,0.0,0.0,0.0,0.0,0.0,0.0,0.0
1646244224.0989943,5069,1646244224,98610258,,0.0,0.0,0.0,0.0,0.0,0.0,0.0,0.0,0.0,0.0,0.0,0.0,0.0,-0.0067235990427434444,0.006954895332455635,-0.07585879415273666,0.0,0.0,0.0,0.0,0.0,0.0,0.0,0.0,0.0,-0.11666666716337204,-0.1705128252506256,9.868205070495605,0.0,0.0,0.0,0.0,0.0,0.0,0.0,0.0,0.0
1646244224.1011348,5070,1646244224,100808548,,0.0,0.0,0.0,0.0,0.0,0.0,0.0,0.0,0.0,0.0,0.0,0.0,0.0,-0.014180450700223446,-0.01115459855645895,-0.07798932492733002,0.0,0.0,0.0,0.0,0.0,0.0,0.0,0.0,0.0,-0.28358975052833557,0.08615384995937347,10.123077392578125,0.0,0.0,0.0,0.0,0.0,0.0,0.0,0.0,0.0
1646244224.1033568,5071,1646244224,103096154,,0.0,0.0,0.0,0.0,0.0,0.0,0.0,0.0,0.0,0.0,0.0,0.0,0.0,-0.022702563554048538,0.0016285729361698031,-0.060945089906454086,0.0,0.0,0.0,0.0,0.0,0.0,0.0,0.0,0.0,0.003589743748307228,-0.06282051652669907,9.744359016418457,0.0,0.0,0.0,0.0,0.0,0.0,0.0,0.0,0.0
1646244224.1056643,5072,1646244224,105297901,,0.0,0.0,0.0,0.0,0.0,0.0,0.0,0.0,0.0,0.0,0.0,0.0,0.0,-0.0035278063733130693,-0.006893542595207691,-0.07372826337814331,0.0,0.0,0.0,0.0,0.0,0.0,0.0,0.0,0.0,0.2997435927391052,-0.030512820929288864,9.586410522460938,0.0,0.0,0.0,0.0,0.0,0.0,0.0,0.0,0.0
1646244224.1088898,5073,1646244224,107494900,,0.0,0.0,0.0,0.0,0.0,0.0,0.0,0.0,0.0,0.0,0.0,0.0,0.0,0.001798515673726797,-0.012219863012433052,-0.05348823964595795,0.0,0.0,0.0,0.0,0.0,0.0,0.0,0.0,0.0,-0.11846154183149338,-0.03589743748307228,10.05128288269043,0.0,0.0,0.0,0.0,0.0,0.0,0.0,0.0,0.0
1646244224.1100936,5074,1646244224,109710808,,0.0,0.0,0.0,0.0,0.0,0.0,0.0,0.0,0.0,0.0,0.0,0.0,0.0,-0.0003320134710520506,-0.03778620809316635,-0.057749297469854355,0.0,0.0,0.0,0.0,0.0,0.0,0.0,0.0,0.0,0.2656410336494446,0.26923078298568726,9.36025619506836,0.0,0.0,0.0,0.0,0.0,0.0,0.0,0.0,0.0
1646244224.1123283,5075,1646244224,111904098,,0.0,0.0,0.0,0.0,0.0,0.0,0.0,0.0,0.0,0.0,0.0,0.0,0.0,0.0103206317871809,0.004824366886168718,-0.05668403208255768,0.0,0.0,0.0,0.0,0.0,0.0,0.0,0.0,0.0,-0.18128205835819244,0.10410256683826447,9.896923065185547,0.0,0.0,0.0,0.0,0.0,0.0,0.0,0.0,0.0
1646244224.1144822,5076,1646244224,114103347,,0.0,0.0,0.0,0.0,0.0,0.0,0.0,0.0,0.0,0.0,0.0,0.0,0.0,-0.008854128420352936,-0.0015672193840146065,-0.04816191643476486,0.0,0.0,0.0,0.0,0.0,0.0,0.0,0.0,0.0,0.21000000834465027,-0.08794872462749481,9.61153793334961,0.0,0.0,0.0,0.0,0.0,0.0,0.0,0.0,0.0
1646244224.1166222,5077,1646244224,116298962,,0.0,0.0,0.0,0.0,0.0,0.0,0.0,0.0,0.0,0.0,0.0,0.0,0.0,-0.01098465733230114,0.0037591024301946163,-0.07266300171613693,0.0,0.0,0.0,0.0,0.0,0.0,0.0,0.0,0.0,0.18128205835819244,-0.15256410837173462,9.353076934814453,0.0,0.0,0.0,0.0,0.0,0.0,0.0,0.0,0.0
1646244224.1189213,5078,1646244224,118506626,,0.0,0.0,0.0,0.0,0.0,0.0,0.0,0.0,0.0,0.0,0.0,0.0,0.0,0.001798515673726797,-0.006893542595207691,-0.05348823964595795,0.0,0.0,0.0,0.0,0.0,0.0,0.0,0.0,0.0,-0.05025641247630119,0.1148717999458313,9.789230346679688,0.0,0.0,0.0,0.0,0.0,0.0,0.0,0.0,0.0
1646244224.1210644,5079,1646244224,120698327,,0.0,0.0,0.0,0.0,0.0,0.0,0.0,0.0,0.0,0.0,0.0,0.0,0.0,0.006059573031961918,-0.017546184360980988,-0.06733667850494385,0.0,0.0,0.0,0.0,0.0,0.0,0.0,0.0,0.0,-0.08974359184503555,0.09871795028448105,9.817949295043945,0.0,0.0,0.0,0.0,0.0,0.0,0.0,0.0,0.0
1646244224.1233528,5080,1646244224,122977922,,0.0,0.0,0.0,0.0,0.0,0.0,0.0,0.0,0.0,0.0,0.0,0.0,0.0,-0.014180450700223446,0.008020159788429737,-0.05348823964595795,0.0,0.0,0.0,0.0,0.0,0.0,0.0,0.0,0.0,-0.3033333420753479,-0.16692309081554413,10.123077392578125,0.0,0.0,0.0,0.0,0.0,0.0,0.0,0.0,0.0
1646244224.1255577,5081,1646244224,125203797,,0.0,0.0,0.0,0.0,0.0,0.0,0.0,0.0,0.0,0.0,0.0,0.0,0.0,-0.020572034642100334,0.009085424244403839,-0.060945089906454086,0.0,0.0,0.0,0.0,0.0,0.0,0.0,0.0,0.0,-0.40743592381477356,0.2028205245733261,10.300769805908203,0.0,0.0,0.0,0.0,0.0,0.0,0.0,0.0,0.0
1646244224.127835,5082,1646244224,127488328,,0.0,0.0,0.0,0.0,0.0,0.0,0.0,0.0,0.0,0.0,0.0,0.0,0.0,-0.015245715156197548,-0.0047630127519369125,-0.04496612399816513,0.0,0.0,0.0,0.0,0.0,0.0,0.0,0.0,0.0,-0.35538461804389954,0.24230769276618958,10.228974342346191,0.0,0.0,0.0,0.0,0.0,0.0,0.0,0.0,0.0
1646244224.130059,5083,1646244224,129710057,,0.0,0.0,0.0,0.0,0.0,0.0,0.0,0.0,0.0,0.0,0.0,0.0,0.0,0.00712483748793602,0.012281217612326145,-0.05348823964595795,0.0,0.0,0.0,0.0,0.0,0.0,0.0,0.0,0.0,-0.16153846681118011,-0.016153845936059952,9.90410327911377,0.0,0.0,0.0,0.0,0.0,0.0,0.0,0.0,0.0
1646244224.132122,5084,1646244224,131901762,,0.0,0.0,0.0,0.0,0.0,0.0,0.0,0.0,0.0,0.0,0.0,0.0,0.0,-0.02163730002939701,0.02612965553998947,-0.051357708871364594,0.0,0.0,0.0,0.0,0.0,0.0,0.0,0.0,0.0,0.19205129146575928,0.012564103119075298,9.523589134216309,0.0,0.0,0.0,0.0,0.0,0.0,0.0,0.0,0.0
1646244224.1345456,5085,1646244224,134128050,,0.0,0.0,0.0,0.0,0.0,0.0,0.0,0.0,0.0,0.0,0.0,0.0,0.0,-0.004593071062117815,0.02612965553998947,-0.03750927746295929,0.0,0.0,0.0,0.0,0.0,0.0,0.0,0.0,0.0,0.08974359184503555,0.09692308306694031,9.597179412841797,0.0,0.0,0.0,0.0,0.0,0.0,0.0,0.0,0.0
1646244224.1367245,5086,1646244224,136325721,,0.0,0.0,0.0,0.0,0.0,0.0,0.0,0.0,0.0,0.0,0.0,0.0,0.0,0.01777748018503189,0.027194919064641,-0.055618766695261,0.0,0.0,0.0,0.0,0.0,0.0,0.0,0.0,0.0,-0.06282051652669907,0.16153846681118011,10.080000877380371,0.0,0.0,0.0,0.0,0.0,0.0,0.0,0.0,0.0
1646244224.138873,5087,1646244224,138596330,,0.0,0.0,0.0,0.0,0.0,0.0,0.0,0.0,0.0,0.0,0.0,0.0,0.0,-0.004593071062117815,0.021868597716093063,-0.030052425339818,0.0,0.0,0.0,0.0,0.0,0.0,0.0,0.0,0.0,-0.10769230872392654,-0.06282051652669907,9.783845901489258,0.0,0.0,0.0,0.0,0.0,0.0,0.0,0.0,0.0
1646244224.1413205,5088,1646244224,140843194,,0.0,0.0,0.0,0.0,0.0,0.0,0.0,0.0,0.0,0.0,0.0,0.0,0.0,0.0103206317871809,0.010150688700377941,-0.031117688864469528,0.0,0.0,0.0,0.0,0.0,0.0,0.0,0.0,0.0,-0.2476923167705536,0.3410256505012512,10.322307586669922,0.0,0.0,0.0,0.0,0.0,0.0,0.0,0.0,0.0
1646244224.1435277,5089,1646244224,143125987,,0.0,0.0,0.0,0.0,0.0,0.0,0.0,0.0,0.0,0.0,0.0,0.0,0.0,0.004994308575987816,0.02293386124074459,-0.0076818703673779964,0.0,0.0,0.0,0.0,0.0,0.0,0.0,0.0,0.0,0.44333335757255554,-0.10410256683826447,9.482307434082031,0.0,0.0,0.0,0.0,0.0,0.0,0.0,0.0,0.0
1646244224.14563,5090,1646244224,145341574,,0.0,0.0,0.0,0.0,0.0,0.0,0.0,0.0,0.0,0.0,0.0,0.0,0.0,-0.017376242205500603,-0.010089334100484848,-0.02366083674132824,0.0,0.0,0.0,0.0,0.0,0.0,0.0,0.0,0.0,0.26384615898132324,0.4217948913574219,9.878974914550781,0.0,0.0,0.0,0.0,0.0,0.0,0.0,0.0,0.0
1646244224.147814,5091,1646244224,147537649,,0.0,0.0,0.0,0.0,0.0,0.0,0.0,0.0,0.0,0.0,0.0,0.0,0.0,0.006059573031961918,0.020803332328796387,0.004036037251353264,0.0,0.0,0.0,0.0,0.0,0.0,0.0,0.0,0.0,0.14179487526416779,0.28358975052833557,10.176923751831055,0.0,0.0,0.0,0.0,0.0,0.0,0.0,0.0,0.0
1646244224.1515398,5092,1646244224,149857469,,0.0,0.0,0.0,0.0,0.0,0.0,0.0,0.0,0.0,0.0,0.0,0.0,0.0,0.0220385380089283,-0.0047630127519369125,0.011492888443171978,0.0,0.0,0.0,0.0,0.0,0.0,0.0,0.0,0.0,-0.14179487526416779,0.21000000834465027,10.108718872070312,0.0,0.0,0.0,0.0,0.0,0.0,0.0,0.0,0.0
1646244224.1526039,5093,1646244224,152062478,,0.0,0.0,0.0,0.0,0.0,0.0,0.0,0.0,0.0,0.0,0.0,0.0,0.0,0.0028637798968702555,-0.0026324838399887085,-0.0023555487859994173,0.0,0.0,0.0,0.0,0.0,0.0,0.0,0.0,0.0,0.2674359083175659,0.27282050251960754,10.155384063720703,0.0,0.0,0.0,0.0,0.0,0.0,0.0,0.0,0.0
1646244224.1545367,5094,1646244224,154220123,,0.0,0.0,0.0,0.0,0.0,0.0,0.0,0.0,0.0,0.0,0.0,0.0,0.0,-0.0024625419173389673,0.0005633095279335976,0.02640658989548683,0.0,0.0,0.0,0.0,0.0,0.0,0.0,0.0,0.0,0.1884615421295166,-0.08435897529125214,9.3889741897583,0.0,0.0,0.0,0.0,0.0,0.0,0.0,0.0,0.0
1646244224.1567724,5095,1646244224,156426880,,0.0,0.0,0.0,0.0,0.0,0.0,0.0,0.0,0.0,0.0,0.0,0.0,0.0,0.0028637798968702555,-0.0036977482959628105,0.005101301707327366,0.0,0.0,0.0,0.0,0.0,0.0,0.0,0.0,0.0,0.40205129981040955,0.17769230902194977,9.61153793334961,0.0,0.0,0.0,0.0,0.0,0.0,0.0,0.0,0.0
1646244224.15908,5096,1646244224,158673863,,0.0,0.0,0.0,0.0,0.0,0.0,0.0,0.0,0.0,0.0,0.0,0.0,0.0,0.00925536546856165,-0.0036977482959628105,-0.005551342852413654,0.0,0.0,0.0,0.0,0.0,0.0,0.0,0.0,0.0,0.3805128335952759,-0.1561538577079773,9.216666221618652,0.0,0.0,0.0,0.0,0.0,0.0,0.0,0.0,0.0
1646244224.1612692,5097,1646244224,160890618,,0.0,0.0,0.0,0.0,0.0,0.0,0.0,0.0,0.0,0.0,0.0,0.0,0.0,0.02949538826942444,-0.02287250943481922,0.02747185342013836,0.0,0.0,0.0,0.0,0.0,0.0,0.0,0.0,0.0,-0.012564103119075298,0.34641027450561523,9.91128158569336,0.0,0.0,0.0,0.0,0.0,0.0,0.0,0.0,0.0
1646244224.1634536,5098,1646244224,163102830,,0.0,0.0,0.0,0.0,0.0,0.0,0.0,0.0,0.0,0.0,0.0,0.0,0.0,0.0007332512177526951,-0.02287250943481922,0.02640658989548683,0.0,0.0,0.0,0.0,0.0,0.0,0.0,0.0,0.0,-0.08435897529125214,0.11666666716337204,10.14640998840332,0.0,0.0,0.0,0.0,0.0,0.0,0.0,0.0,0.0
1646244224.1658049,5099,1646244224,165326781,,0.0,0.0,0.0,0.0,0.0,0.0,0.0,0.0,0.0,0.0,0.0,0.0,0.0,0.018842745572328568,-0.025003038346767426,0.03492870554327965,0.0,0.0,0.0,0.0,0.0,0.0,0.0,0.0,0.0,0.3625641167163849,0.00897435937076807,9.40871810913086,0.0,0.0,0.0,0.0,0.0,0.0,0.0,0.0,0.0
1646244224.167971,5100,1646244224,167579407,,0.0,0.0,0.0,0.0,0.0,0.0,0.0,0.0,0.0,0.0,0.0,0.0,0.0,0.004994308575987816,-0.029264096170663834,0.009362359531223774,0.0,0.0,0.0,0.0,0.0,0.0,0.0,0.0,0.0,0.05025641247630119,0.1382051259279251,9.744359016418457,0.0,0.0,0.0,0.0,0.0,0.0,0.0,0.0,0.0
1646244224.1701958,5101,1646244224,169784283,,0.0,0.0,0.0,0.0,0.0,0.0,0.0,0.0,0.0,0.0,0.0,0.0,0.0,-0.0013972773449495435,-0.01967671327292919,0.03066764585673809,0.0,0.0,0.0,0.0,0.0,0.0,0.0,0.0,0.0,0.07000000029802322,-0.028717949986457825,9.579231262207031,0.0,0.0,0.0,0.0,0.0,0.0,0.0,0.0,0.0
1646244224.172294,5102,1646244224,171981264,,0.0,0.0,0.0,0.0,0.0,0.0,0.0,0.0,0.0,0.0,0.0,0.0,0.0,-0.004593071062117815,-0.017546184360980988,0.04025502875447273,0.0,0.0,0.0,0.0,0.0,0.0,0.0,0.0,0.0,-0.17769230902194977,0.4810256361961365,10.20923137664795,0.0,0.0,0.0,0.0,0.0,0.0,0.0,0.0,0.0
1646244224.1745257,5103,1646244224,174195292,,0.0,0.0,0.0,0.0,0.0,0.0,0.0,0.0,0.0,0.0,0.0,0.0,0.0,-0.008854128420352936,-0.021807242184877396,0.057299256324768066,0.0,0.0,0.0,0.0,0.0,0.0,0.0,0.0,0.0,-0.1705128252506256,0.10051282495260239,10.108718872070312,0.0,0.0,0.0,0.0,0.0,0.0,0.0,0.0,0.0
1646244224.1767905,5104,1646244224,176423272,,0.0,0.0,0.0,0.0,0.0,0.0,0.0,0.0,0.0,0.0,0.0,0.0,0.0,-0.0035278063733130693,-0.0036977482959628105,0.054103460162878036,0.0,0.0,0.0,0.0,0.0,0.0,0.0,0.0,0.0,-0.10410256683826447,0.3805128335952759,9.934615135192871,0.0,0.0,0.0,0.0,0.0,0.0,0.0,0.0,0.0
1646244224.1791139,5105,1646244224,178690770,,0.0,0.0,0.0,0.0,0.0,0.0,0.0,0.0,0.0,0.0,0.0,0.0,0.0,0.012451158836483955,0.0037591024301946163,0.02001500315964222,0.0,0.0,0.0,0.0,0.0,0.0,0.0,0.0,0.0,0.09153846651315689,0.2064102590084076,9.751538276672363,0.0,0.0,0.0,0.0,0.0,0.0,0.0,0.0,0.0
1646244224.1813014,5106,1646244224,180911707,,0.0,0.0,0.0,0.0,0.0,0.0,0.0,0.0,0.0,0.0,0.0,0.0,0.0,-0.026963621377944946,-0.014350391924381256,0.04451608657836914,0.0,0.0,0.0,0.0,0.0,0.0,0.0,0.0,0.0,0.42000001668930054,0.046666666865348816,9.460768699645996,0.0,0.0,0.0,0.0,0.0,0.0,0.0,0.0,0.0
1646244224.1834779,5107,1646244224,183156324,,0.0,0.0,0.0,0.0,0.0,0.0,0.0,0.0,0.0,0.0,0.0,0.0,0.0,-0.005658335518091917,0.00588963134214282,0.03066764585673809,0.0,0.0,0.0,0.0,0.0,0.0,0.0,0.0,0.0,0.14538460969924927,0.06641025841236115,9.473333358764648,0.0,0.0,0.0,0.0,0.0,0.0,0.0,0.0,0.0
1646244224.1856825,5108,1646244224,185356553,,0.0,0.0,0.0,0.0,0.0,0.0,0.0,0.0,0.0,0.0,0.0,0.0,0.0,0.02097327448427677,-0.015415656380355358,0.058364517986774445,0.0,0.0,0.0,0.0,0.0,0.0,0.0,0.0,0.0,-0.01794871874153614,0.22794872522354126,10.0369234085083,0.0,0.0,0.0,0.0,0.0,0.0,0.0,0.0,0.0
1646244224.1881564,5109,1646244224,187556917,,0.0,0.0,0.0,0.0,0.0,0.0,0.0,0.0,0.0,0.0,0.0,0.0,0.0,-0.004593071062117815,-0.01115459855645895,0.035993970930576324,0.0,0.0,0.0,0.0,0.0,0.0,0.0,0.0,0.0,0.06282051652669907,0.49000000953674316,10.029743194580078,0.0,0.0,0.0,0.0,0.0,0.0,0.0,0.0,0.0
1646244224.1902401,5110,1646244224,189779293,,0.0,0.0,0.0,0.0,0.0,0.0,0.0,0.0,0.0,0.0,0.0,0.0,0.0,0.019908009096980095,0.017607539892196655,0.05516872555017471,0.0,0.0,0.0,0.0,0.0,0.0,0.0,0.0,0.0,0.01974359154701233,0.05743589997291565,10.09076976776123,0.0,0.0,0.0,0.0,0.0,0.0,0.0,0.0,0.0
1646244224.193325,5111,1646244224,192081914,,0.0,0.0,0.0,0.0,0.0,0.0,0.0,0.0,0.0,0.0,0.0,0.0,0.0,0.00925536546856165,-0.0015672193840146065,0.05197293311357498,0.0,0.0,0.0,0.0,0.0,0.0,0.0,0.0,0.0,0.11846154183149338,0.38948720693588257,9.916666030883789,0.0,0.0,0.0,0.0,0.0,0.0,0.0,0.0,0.0
1646244224.1945903,5112,1646244224,194299524,,0.0,0.0,0.0,0.0,0.0,0.0,0.0,0.0,0.0,0.0,0.0,0.0,0.0,0.018842745572328568,-0.029264096170663834,0.02640658989548683,0.0,0.0,0.0,0.0,0.0,0.0,0.0,0.0,0.0,0.19205129146575928,0.2064102590084076,9.59538459777832,0.0,0.0,0.0,0.0,0.0,0.0,0.0,0.0,0.0
1646244224.1968246,5113,1646244224,196498397,,0.0,0.0,0.0,0.0,0.0,0.0,0.0,0.0,0.0,0.0,0.0,0.0,0.0,0.006059573031961918,-0.009024071507155895,0.07327822595834732,0.0,0.0,0.0,0.0,0.0,0.0,0.0,0.0,0.0,0.45769232511520386,-0.044871795922517776,9.304615020751953,0.0,0.0,0.0,0.0,0.0,0.0,0.0,0.0,0.0
1646244224.199085,5114,1646244224,198725013,,0.0,0.0,0.0,0.0,0.0,0.0,0.0,0.0,0.0,0.0,0.0,0.0,0.0,0.02523433417081833,0.02612965553998947,0.06475610285997391,0.0,0.0,0.0,0.0,0.0,0.0,0.0,0.0,0.0,0.3912820518016815,0.0735897421836853,9.50743579864502,0.0,0.0,0.0,0.0,0.0,0.0,0.0,0.0,0.0
1646244224.2013478,5115,1646244224,201018172,,0.0,0.0,0.0,0.0,0.0,0.0,0.0,0.0,0.0,0.0,0.0,0.0,0.0,0.023103805258870125,-0.015415656380355358,0.05516872555017471,0.0,0.0,0.0,0.0,0.0,0.0,0.0,0.0,0.0,0.11846154183149338,0.03589743748307228,9.780256271362305,0.0,0.0,0.0,0.0,0.0,0.0,0.0,0.0,0.0
1646244224.2036107,5116,1646244224,203229831,,0.0,0.0,0.0,0.0,0.0,0.0,0.0,0.0,0.0,0.0,0.0,0.0,0.0,0.019908009096980095,-0.0015672193840146065,0.04132029414176941,0.0,0.0,0.0,0.0,0.0,0.0,0.0,0.0,0.0,0.43435898423194885,0.13102564215660095,9.604358673095703,0.0,0.0,0.0,0.0,0.0,0.0,0.0,0.0,0.0
1646244224.2058184,5117,1646244224,205456204,,0.0,0.0,0.0,0.0,0.0,0.0,0.0,0.0,0.0,0.0,0.0,0.0,0.0,0.03162591904401779,-0.012219863012433052,0.07221296429634094,0.0,0.0,0.0,0.0,0.0,0.0,0.0,0.0,0.0,0.2028205245733261,-0.12025640904903412,9.449999809265137,0.0,0.0,0.0,0.0,0.0,0.0,0.0,0.0,0.0
1646244224.2082093,5118,1646244224,207722928,,0.0,0.0,0.0,0.0,0.0,0.0,0.0,0.0,0.0,0.0,0.0,0.0,0.0,0.02949538826942444,0.00588963134214282,0.07647401839494705,0.0,0.0,0.0,0.0,0.0,0.0,0.0,0.0,0.0,0.3392307758331299,0.05205128341913223,9.534358978271484,0.0,0.0,0.0,0.0,0.0,0.0,0.0,0.0,0.0
1646244224.2102795,5119,1646244224,210004552,,0.0,0.0,0.0,0.0,0.0,0.0,0.0,0.0,0.0,0.0,0.0,0.0,0.0,0.011385894380509853,-0.0015672193840146065,0.04451608657836914,0.0,0.0,0.0,0.0,0.0,0.0,0.0,0.0,0.0,0.09153846651315689,0.03410256281495094,9.758718490600586,0.0,0.0,0.0,0.0,0.0,0.0,0.0,0.0,0.0
1646244224.2125986,5120,1646244224,212249079,,0.0,0.0,0.0,0.0,0.0,0.0,0.0,0.0,0.0,0.0,0.0,0.0,0.0,0.014581688679754734,-0.0026324838399887085,0.06475610285997391,0.0,0.0,0.0,0.0,0.0,0.0,0.0,0.0,0.0,-0.2620512843132019,0.5061538815498352,10.203845977783203,0.0,0.0,0.0,0.0,0.0,0.0,0.0,0.0,0.0
1646244224.214784,5121,1646244224,214467864,,0.0,0.0,0.0,0.0,0.0,0.0,0.0,0.0,0.0,0.0,0.0,0.0,0.0,0.012451158836483955,0.023999126628041267,0.05942978337407112,0.0,0.0,0.0,0.0,0.0,0.0,0.0,0.0,0.0,-0.16871795058250427,-0.010769231244921684,9.787436485290527,0.0,0.0,0.0,0.0,0.0,0.0,0.0,0.0,0.0
1646244224.2171068,5122,1646244224,216763312,,0.0,0.0,0.0,0.0,0.0,0.0,0.0,0.0,0.0,0.0,0.0,0.0,0.0,-0.013115186244249344,0.00588963134214282,0.0743434876203537,0.0,0.0,0.0,0.0,0.0,0.0,0.0,0.0,0.0,-0.3176923394203186,0.1794871836900711,10.239744186401367,0.0,0.0,0.0,0.0,0.0,0.0,0.0,0.0,0.0
1646244224.2194383,5123,1646244224,219032189,,0.0,0.0,0.0,0.0,0.0,0.0,0.0,0.0,0.0,0.0,0.0,0.0,0.0,0.018842745572328568,-0.005828278139233589,0.04984240233898163,0.0,0.0,0.0,0.0,0.0,0.0,0.0,0.0,0.0,-0.23512820899486542,0.10769230872392654,10.198461532592773,0.0,0.0,0.0,0.0,0.0,0.0,0.0,0.0,0.0
1646244224.2221482,5124,1646244224,221259537,,0.0,0.0,0.0,0.0,0.0,0.0,0.0,0.0,0.0,0.0,0.0,0.0,0.0,-0.022702563554048538,0.03678229823708534,0.07221296429634094,0.0,0.0,0.0,0.0,0.0,0.0,0.0,0.0,0.0,-0.044871795922517776,-0.06282051652669907,9.60615348815918,0.0,0.0,0.0,0.0,0.0,0.0,0.0,0.0,0.0
1646244224.2237687,5125,1646244224,223488511,,0.0,0.0,0.0,0.0,0.0,0.0,0.0,0.0,0.0,0.0,0.0,0.0,0.0,-0.023767828941345215,-0.0026324838399887085,0.06688663363456726,0.0,0.0,0.0,0.0,0.0,0.0,0.0,0.0,0.0,0.10769230872392654,-0.2889743745326996,9.55051326751709,0.0,0.0,0.0,0.0,0.0,0.0,0.0,0.0,0.0
1646244224.2259324,5126,1646244224,225707403,,0.0,0.0,0.0,0.0,0.0,0.0,0.0,0.0,0.0,0.0,0.0,0.0,0.0,-0.026963621377944946,0.01441174652427435,0.07647401839494705,0.0,0.0,0.0,0.0,0.0,0.0,0.0,0.0,0.0,0.1471794843673706,0.007179487496614456,9.54692268371582,0.0,0.0,0.0,0.0,0.0,0.0,0.0,0.0,0.0
1646244224.2284088,5127,1646244224,227932024,,0.0,0.0,0.0,0.0,0.0,0.0,0.0,0.0,0.0,0.0,0.0,0.0,0.0,-0.030159417539834976,0.0005633095279335976,0.061560314148664474,0.0,0.0,0.0,0.0,0.0,0.0,0.0,0.0,0.0,0.23153845965862274,-0.2710256576538086,9.591794967651367,0.0,0.0,0.0,0.0,0.0,0.0,0.0,0.0,0.0
1646244224.2306466,5128,1646244224,230160630,,0.0,0.0,0.0,0.0,0.0,0.0,0.0,0.0,0.0,0.0,0.0,0.0,0.0,-0.023767828941345215,0.01654227450489998,0.04771187901496887,0.0,0.0,0.0,0.0,0.0,0.0,0.0,0.0,0.0,-0.27820512652397156,0.10051282495260239,10.117691993713379,0.0,0.0,0.0,0.0,0.0,0.0,0.0,0.0,0.0
1646244224.2328105,5129,1646244224,232485992,,0.0,0.0,0.0,0.0,0.0,0.0,0.0,0.0,0.0,0.0,0.0,0.0,0.0,-0.028028886765241623,-0.0015672193840146065,0.06369084119796753,0.0,0.0,0.0,0.0,0.0,0.0,0.0,0.0,0.0,-0.1884615421295166,-0.048461541533470154,10.155384063720703,0.0,0.0,0.0,0.0,0.0,0.0,0.0,0.0,0.0
1646244224.2362058,5130,1646244224,234726008,,0.0,0.0,0.0,0.0,0.0,0.0,0.0,0.0,0.0,0.0,0.0,0.0,0.0,-0.02909415028989315,0.029325447976589203,0.029602382332086563,0.0,0.0,0.0,0.0,0.0,0.0,0.0,0.0,0.0,-0.11307692527770996,-0.014358974993228912,10.19487190246582,0.0,0.0,0.0,0.0,0.0,0.0,0.0,0.0,0.0
1646244224.2372704,5131,1646244224,236982191,,0.0,0.0,0.0,0.0,0.0,0.0,0.0,0.0,0.0,0.0,0.0,0.0,0.0,-0.02909415028989315,0.0016285729361698031,0.043450821191072464,0.0,0.0,0.0,0.0,0.0,0.0,0.0,0.0,0.0,0.14179487526416779,-0.030512820929288864,9.9094877243042,0.0,0.0,0.0,0.0,0.0,0.0,0.0,0.0,0.0
1646244224.239452,5132,1646244224,239189624,,0.0,0.0,0.0,0.0,0.0,0.0,0.0,0.0,0.0,0.0,0.0,0.0,0.0,-0.024833092465996742,-0.02287250943481922,0.028537116944789886,0.0,0.0,0.0,0.0,0.0,0.0,0.0,0.0,0.0,0.36974361538887024,-0.10410256683826447,9.231025695800781,0.0,0.0,0.0,0.0,0.0,0.0,0.0,0.0,0.0
1646244224.2417767,5133,1646244224,241409081,,0.0,0.0,0.0,0.0,0.0,0.0,0.0,0.0,0.0,0.0,0.0,0.0,0.0,-0.019506771117448807,0.004824366886168718,0.017884474247694016,0.0,0.0,0.0,0.0,0.0,0.0,0.0,0.0,0.0,-0.27282050251960754,0.12205128371715546,10.442564010620117,0.0,0.0,0.0,0.0,0.0,0.0,0.0,0.0,0.0
1646244224.2442868,5134,1646244224,243688678,,0.0,0.0,0.0,0.0,0.0,0.0,0.0,0.0,0.0,0.0,0.0,0.0,0.0,-0.0077888634987175465,-0.01967671327292919,0.029602382332086563,0.0,0.0,0.0,0.0,0.0,0.0,0.0,0.0,0.0,0.3087179660797119,-0.5007692575454712,9.119743347167969,0.0,0.0,0.0,0.0,0.0,0.0,0.0,0.0,0.0
1646244224.2464862,5135,1646244224,246013955,,0.0,0.0,0.0,0.0,0.0,0.0,0.0,0.0,0.0,0.0,0.0,0.0,0.0,-0.01098465733230114,-0.03352515026926994,0.018949739634990692,0.0,0.0,0.0,0.0,0.0,0.0,0.0,0.0,0.0,0.0735897421836853,0.22794872522354126,9.974102020263672,0.0,0.0,0.0,0.0,0.0,0.0,0.0,0.0,0.0
1646244224.248738,5136,1646244224,248254885,,0.0,0.0,0.0,0.0,0.0,0.0,0.0,0.0,0.0,0.0,0.0,0.0,0.0,-0.009919392876327038,0.00588963134214282,0.006166566163301468,0.0,0.0,0.0,0.0,0.0,0.0,0.0,0.0,0.0,0.25846153497695923,-0.4092307686805725,9.331538200378418,0.0,0.0,0.0,0.0,0.0,0.0,0.0,0.0,0.0
1646244224.251025,5137,1646244224,250539948,,0.0,0.0,0.0,0.0,0.0,0.0,0.0,0.0,0.0,0.0,0.0,0.0,0.0,0.011385894380509853,-0.03245988488197327,-0.04496612399816513,0.0,0.0,0.0,0.0,0.0,0.0,0.0,0.0,0.0,0.2746153771877289,0.09153846651315689,9.383589744567871,0.0,0.0,0.0,0.0,0.0,0.0,0.0,0.0,0.0
1646244224.2532897,5138,1646244224,252798107,,0.0,0.0,0.0,0.0,0.0,0.0,0.0,0.0,0.0,0.0,0.0,0.0,0.0,0.00925536546856165,-0.009024071507155895,-0.027921894565224648,0.0,0.0,0.0,0.0,0.0,0.0,0.0,0.0,0.0,0.2566666603088379,-0.2476923167705536,9.60615348815918,0.0,0.0,0.0,0.0,0.0,0.0,0.0,0.0,0.0
1646244224.2553976,5139,1646244224,255062426,,0.0,0.0,0.0,0.0,0.0,0.0,0.0,0.0,0.0,0.0,0.0,0.0,0.0,-0.02589835785329342,-0.014350391924381256,0.0019055086886510253,0.0,0.0,0.0,0.0,0.0,0.0,0.0,0.0,0.0,-0.10410256683826447,-0.32487180829048157,9.613333702087402,0.0,0.0,0.0,0.0,0.0,0.0,0.0,0.0,0.0
1646244224.2575939,5140,1646244224,257273265,,0.0,0.0,0.0,0.0,0.0,0.0,0.0,0.0,0.0,0.0,0.0,0.0,0.0,0.018842745572328568,-0.01115459855645895,-0.039639800786972046,0.0,0.0,0.0,0.0,0.0,0.0,0.0,0.0,0.0,-0.36615386605262756,-0.10410256683826447,10.173333168029785,0.0,0.0,0.0,0.0,0.0,0.0,0.0,0.0,0.0
1646244224.259886,5141,1646244224,259511309,,0.0,0.0,0.0,0.0,0.0,0.0,0.0,0.0,0.0,0.0,0.0,0.0,0.0,0.023103805258870125,-0.017546184360980988,-0.04922718182206154,0.0,0.0,0.0,0.0,0.0,0.0,0.0,0.0,0.0,-0.2441025674343109,-0.1238461583852768,9.918461799621582,0.0,0.0,0.0,0.0,0.0,0.0,0.0,0.0,0.0
1646244224.26231,5142,1646244224,261823076,,0.0,0.0,0.0,0.0,0.0,0.0,0.0,0.0,0.0,0.0,0.0,0.0,0.0,0.004994308575987816,0.0016285729361698031,-0.039639800786972046,0.0,0.0,0.0,0.0,0.0,0.0,0.0,0.0,0.0,-0.3069230914115906,0.1238461583852768,9.948974609375,0.0,0.0,0.0,0.0,0.0,0.0,0.0,0.0,0.0
1646244224.2643657,5143,1646244224,263998331,,0.0,0.0,0.0,0.0,0.0,0.0,0.0,0.0,0.0,0.0,0.0,0.0,0.0,0.011385894380509853,0.00588963134214282,-0.035378746688365936,0.0,0.0,0.0,0.0,0.0,0.0,0.0,0.0,0.0,-0.10230769217014313,-0.3320513069629669,9.839487075805664,0.0,0.0,0.0,0.0,0.0,0.0,0.0,0.0,0.0
1646244224.2667165,5144,1646244224,266365300,,0.0,0.0,0.0,0.0,0.0,0.0,0.0,0.0,0.0,0.0,0.0,0.0,0.0,-0.01098465733230114,-0.0036977482959628105,-0.04603138566017151,0.0,0.0,0.0,0.0,0.0,0.0,0.0,0.0,0.0,0.22435897588729858,0.030512820929288864,9.3889741897583,0.0,0.0,0.0,0.0,0.0,0.0,0.0,0.0,0.0
1646244224.268957,5145,1646244224,268584799,,0.0,0.0,0.0,0.0,0.0,0.0,0.0,0.0,0.0,0.0,0.0,0.0,0.0,-0.004593071062117815,0.011215953156352043,-0.07372826337814331,0.0,0.0,0.0,0.0,0.0,0.0,0.0,0.0,0.0,0.17589744925498962,-0.12564103305339813,9.814358711242676,0.0,0.0,0.0,0.0,0.0,0.0,0.0,0.0,0.0
1646244224.271238,5146,1646244224,270810882,,0.0,0.0,0.0,0.0,0.0,0.0,0.0,0.0,0.0,0.0,0.0,0.0,0.0,-0.012049921788275242,0.01973806880414486,-0.03324821963906288,0.0,0.0,0.0,0.0,0.0,0.0,0.0,0.0,0.0,0.1328205168247223,-0.4864102602005005,9.272307395935059,0.0,0.0,0.0,0.0,0.0,0.0,0.0,0.0,0.0
1646244224.2734518,5147,1646244224,273071721,,0.0,0.0,0.0,0.0,0.0,0.0,0.0,0.0,0.0,0.0,0.0,0.0,0.0,0.014581688679754734,0.011215953156352043,-0.07159774005413055,0.0,0.0,0.0,0.0,0.0,0.0,0.0,0.0,0.0,-0.01974359154701233,-0.044871795922517776,9.886154174804688,0.0,0.0,0.0,0.0,0.0,0.0,0.0,0.0,0.0
1646244224.2756822,5148,1646244224,275305185,,0.0,0.0,0.0,0.0,0.0,0.0,0.0,0.0,0.0,0.0,0.0,0.0,0.0,-0.0013972773449495435,0.009085424244403839,-0.022595571354031563,0.0,0.0,0.0,0.0,0.0,0.0,0.0,0.0,0.0,0.23333333432674408,-0.46128207445144653,9.35487174987793,0.0,0.0,0.0,0.0,0.0,0.0,0.0,0.0,0.0
1646244224.2790182,5149,1646244224,277540733,,0.0,0.0,0.0,0.0,0.0,0.0,0.0,0.0,0.0,0.0,0.0,0.0,0.0,-0.02163730002939701,0.0037591024301946163,-0.04816191643476486,0.0,0.0,0.0,0.0,0.0,0.0,0.0,0.0,0.0,-0.2153846174478531,0.19025641679763794,10.142821311950684,0.0,0.0,0.0,0.0,0.0,0.0,0.0,0.0,0.0
1646244224.2801743,5150,1646244224,279791686,,0.0,0.0,0.0,0.0,0.0,0.0,0.0,0.0,0.0,0.0,0.0,0.0,0.0,0.011385894380509853,0.025064390152692795,-0.04070506617426872,0.0,0.0,0.0,0.0,0.0,0.0,0.0,0.0,0.0,-0.18128205835819244,-0.14358974993228912,9.746153831481934,0.0,0.0,0.0,0.0,0.0,0.0,0.0,0.0,0.0
1646244224.2822926,5151,1646244224,281983618,,0.0,0.0,0.0,0.0,0.0,0.0,0.0,0.0,0.0,0.0,0.0,0.0,0.0,-0.0067235990427434444,-0.010089334100484848,-0.0417703278362751,0.0,0.0,0.0,0.0,0.0,0.0,0.0,0.0,0.0,0.001794871874153614,-0.3679487407207489,9.68871784210205,0.0,0.0,0.0,0.0,0.0,0.0,0.0,0.0,0.0
1646244224.2846498,5152,1646244224,284241864,,0.0,0.0,0.0,0.0,0.0,0.0,0.0,0.0,0.0,0.0,0.0,0.0,0.0,0.0028637798968702555,0.023999126628041267,-0.08011985570192337,0.0,0.0,0.0,0.0,0.0,0.0,0.0,0.0,0.0,-0.25846153497695923,0.00897435937076807,10.191282272338867,0.0,0.0,0.0,0.0,0.0,0.0,0.0,0.0,0.0
1646244224.2868109,5153,1646244224,286473265,,0.0,0.0,0.0,0.0,0.0,0.0,0.0,0.0,0.0,0.0,0.0,0.0,0.0,-0.004593071062117815,0.03358650580048561,-0.057749297469854355,0.0,0.0,0.0,0.0,0.0,0.0,0.0,0.0,0.0,-0.3948718011379242,-0.012564103119075298,9.896923065185547,0.0,0.0,0.0,0.0,0.0,0.0,0.0,0.0,0.0
1646244224.289195,5154,1646244224,288694200,,0.0,0.0,0.0,0.0,0.0,0.0,0.0,0.0,0.0,0.0,0.0,0.0,0.0,-0.015245715156197548,0.009085424244403839,-0.06201035529375076,0.0,0.0,0.0,0.0,0.0,0.0,0.0,0.0,0.0,-0.2387179583311081,0.3302564322948456,9.981282234191895,0.0,0.0,0.0,0.0,0.0,0.0,0.0,0.0,0.0
1646244224.2914054,5155,1646244224,290908279,,0.0,0.0,0.0,0.0,0.0,0.0,0.0,0.0,0.0,0.0,0.0,0.0,0.0,-0.0067235990427434444,0.017607539892196655,-0.0790545865893364,0.0,0.0,0.0,0.0,0.0,0.0,0.0,0.0,0.0,0.14000000059604645,-0.41102564334869385,9.460768699645996,0.0,0.0,0.0,0.0,0.0,0.0,0.0,0.0,0.0
1646244224.2935627,5156,1646244224,293149629,,0.0,0.0,0.0,0.0,0.0,0.0,0.0,0.0,0.0,0.0,0.0,0.0,0.0,0.0028637798968702555,0.03997809439897537,-0.04922718182206154,0.0,0.0,0.0,0.0,0.0,0.0,0.0,0.0,0.0,0.2117948830127716,-0.010769231244921684,9.270512580871582,0.0,0.0,0.0,0.0,0.0,0.0,0.0,0.0,0.0
1646244224.2959533,5157,1646244224,295385496,,0.0,0.0,0.0,0.0,0.0,0.0,0.0,0.0,0.0,0.0,0.0,0.0,0.0,0.003929044120013714,0.013346482068300247,-0.05348823964595795,0.0,0.0,0.0,0.0,0.0,0.0,0.0,0.0,0.0,0.1884615421295166,-0.3356410562992096,9.573845863342285,0.0,0.0,0.0,0.0,0.0,0.0,0.0,0.0,0.0
1646244224.2980008,5158,1646244224,297592540,,0.0,0.0,0.0,0.0,0.0,0.0,0.0,0.0,0.0,0.0,0.0,0.0,0.0,-0.013115186244249344,0.012281217612326145,-0.054553501307964325,0.0,0.0,0.0,0.0,0.0,0.0,0.0,0.0,0.0,0.2530769407749176,-0.25846153497695923,9.65999984741211,0.0,0.0,0.0,0.0,0.0,0.0,0.0,0.0,0.0
1646244224.3001323,5159,1646244224,299806473,,0.0,0.0,0.0,0.0,0.0,0.0,0.0,0.0,0.0,0.0,0.0,0.0,0.0,0.00925536546856165,0.0016285729361698031,-0.07798932492733002,0.0,0.0,0.0,0.0,0.0,0.0,0.0,0.0,0.0,-0.2476923167705536,0.0825641080737114,10.10692310333252,0.0,0.0,0.0,0.0,0.0,0.0,0.0,0.0,0.0
1646244224.3023775,5160,1646244224,302035685,,0.0,0.0,0.0,0.0,0.0,0.0,0.0,0.0,0.0,0.0,0.0,0.0,0.0,-0.024833092465996742,0.004824366886168718,-0.05881455913186073,0.0,0.0,0.0,0.0,0.0,0.0,0.0,0.0,0.0,-0.1058974415063858,-0.1238461583852768,10.017179489135742,0.0,0.0,0.0,0.0,0.0,0.0,0.0,0.0,0.0
1646244224.3046255,5161,1646244224,304254143,,0.0,0.0,0.0,0.0,0.0,0.0,0.0,0.0,0.0,0.0,0.0,0.0,0.0,-0.009919392876327038,-0.015415656380355358,-0.06307561695575714,0.0,0.0,0.0,0.0,0.0,0.0,0.0,0.0,0.0,0.11846154183149338,-0.01974359154701233,9.830512046813965,0.0,0.0,0.0,0.0,0.0,0.0,0.0,0.0,0.0
1646244224.3069425,5162,1646244224,306486837,,0.0,0.0,0.0,0.0,0.0,0.0,0.0,0.0,0.0,0.0,0.0,0.0,0.0,0.01777748018503189,-0.036720942705869675,-0.04070506617426872,0.0,0.0,0.0,0.0,0.0,0.0,0.0,0.0,0.0,-0.12743589282035828,-0.12564103305339813,9.920256614685059,0.0,0.0,0.0,0.0,0.0,0.0,0.0,0.0,0.0
1646244224.3092523,5163,1646244224,308724316,,0.0,0.0,0.0,0.0,0.0,0.0,0.0,0.0,0.0,0.0,0.0,0.0,0.0,-0.014180450700223446,0.0026938372757285833,-0.057749297469854355,0.0,0.0,0.0,0.0,0.0,0.0,0.0,0.0,0.0,0.3410256505012512,-0.11128205060958862,9.302820205688477,0.0,0.0,0.0,0.0,0.0,0.0,0.0,0.0,0.0
1646244224.3116713,5164,1646244224,310977726,,0.0,0.0,0.0,0.0,0.0,0.0,0.0,0.0,0.0,0.0,0.0,0.0,0.0,-0.008854128420352936,-0.020741978660225868,-0.0652061477303505,0.0,0.0,0.0,0.0,0.0,0.0,0.0,0.0,0.0,-0.24051281809806824,0.12564103305339813,10.123077392578125,0.0,0.0,0.0,0.0,0.0,0.0,0.0,0.0,0.0
1646244224.3141,5165,1646244224,313171730,,0.0,0.0,0.0,0.0,0.0,0.0,0.0,0.0,0.0,0.0,0.0,0.0,0.0,-0.004593071062117815,-0.014350391924381256,-0.03644401207566261,0.0,0.0,0.0,0.0,0.0,0.0,0.0,0.0,0.0,0.1058974415063858,0.05025641247630119,9.846667289733887,0.0,0.0,0.0,0.0,0.0,0.0,0.0,0.0,0.0
1646244224.315932,5166,1646244224,315372216,,0.0,0.0,0.0,0.0,0.0,0.0,0.0,0.0,0.0,0.0,0.0,0.0,0.0,-0.02163730002939701,-0.012219863012433052,-0.07372826337814331,0.0,0.0,0.0,0.0,0.0,0.0,0.0,0.0,0.0,0.2476923167705536,-0.24589744210243225,9.297435760498047,0.0,0.0,0.0,0.0,0.0,0.0,0.0,0.0,0.0
1646244224.318078,5167,1646244224,317658455,,0.0,0.0,0.0,0.0,0.0,0.0,0.0,0.0,0.0,0.0,0.0,0.0,0.0,0.004994308575987816,0.0005633095279335976,-0.06201035529375076,0.0,0.0,0.0,0.0,0.0,0.0,0.0,0.0,0.0,0.03410256281495094,-0.37512820959091187,9.437435150146484,0.0,0.0,0.0,0.0,0.0,0.0,0.0,0.0,0.0
1646244224.321117,5168,1646244224,319885305,,0.0,0.0,0.0,0.0,0.0,0.0,0.0,0.0,0.0,0.0,0.0,0.0,0.0,-0.028028886765241623,0.00588963134214282,-0.07372826337814331,0.0,0.0,0.0,0.0,0.0,0.0,0.0,0.0,0.0,0.03948718309402466,-0.14000000059604645,9.65461540222168,0.0,0.0,0.0,0.0,0.0,0.0,0.0,0.0,0.0
1646244224.3224895,5169,1646244224,322126477,,0.0,0.0,0.0,0.0,0.0,0.0,0.0,0.0,0.0,0.0,0.0,0.0,0.0,0.0028637798968702555,0.0016285729361698031,-0.05881455913186073,0.0,0.0,0.0,0.0,0.0,0.0,0.0,0.0,0.0,-0.3912820518016815,-0.11846154183149338,9.862820625305176,0.0,0.0,0.0,0.0,0.0,0.0,0.0,0.0,0.0
1646244224.3247495,5170,1646244224,324320211,,0.0,0.0,0.0,0.0,0.0,0.0,0.0,0.0,0.0,0.0,0.0,0.0,0.0,-0.0067235990427434444,-0.005828278139233589,-0.06201035529375076,0.0,0.0,0.0,0.0,0.0,0.0,0.0,0.0,0.0,-0.5097435712814331,0.1561538577079773,10.50538444519043,0.0,0.0,0.0,0.0,0.0,0.0,0.0,0.0,0.0
1646244224.3270009,5171,1646244224,326526112,,0.0,0.0,0.0,0.0,0.0,0.0,0.0,0.0,0.0,0.0,0.0,0.0,0.0,-0.005658335518091917,0.028260184451937675,-0.05881455913186073,0.0,0.0,0.0,0.0,0.0,0.0,0.0,0.0,0.0,-0.2889743745326996,0.03410256281495094,9.878974914550781,0.0,0.0,0.0,0.0,0.0,0.0,0.0,0.0,0.0
1646244224.329312,5172,1646244224,328744821,,0.0,0.0,0.0,0.0,0.0,0.0,0.0,0.0,0.0,0.0,0.0,0.0,0.0,-0.01098465733230114,0.004824366886168718,-0.04283559322357178,0.0,0.0,0.0,0.0,0.0,0.0,0.0,0.0,0.0,-0.09512820839881897,0.14000000059604645,10.045896530151367,0.0,0.0,0.0,0.0,0.0,0.0,0.0,0.0,0.0
1646244224.3312793,5173,1646244224,330982403,,0.0,0.0,0.0,0.0,0.0,0.0,0.0,0.0,0.0,0.0,0.0,0.0,0.0,0.0103206317871809,0.0037591024301946163,-0.07479353249073029,0.0,0.0,0.0,0.0,0.0,0.0,0.0,0.0,0.0,0.06820512562990189,-0.07897436618804932,9.579231262207031,0.0,0.0,0.0,0.0,0.0,0.0,0.0,0.0,0.0
1646244224.3335114,5174,1646244224,333215013,,0.0,0.0,0.0,0.0,0.0,0.0,0.0,0.0,0.0,0.0,0.0,0.0,0.0,0.006059573031961918,0.017607539892196655,-0.0162039864808321,0.0,0.0,0.0,0.0,0.0,0.0,0.0,0.0,0.0,-0.4146153926849365,-0.012564103119075298,10.069230079650879,0.0,0.0,0.0,0.0,0.0,0.0,0.0,0.0,0.0
1646244224.3357806,5175,1646244224,335432756,,0.0,0.0,0.0,0.0,0.0,0.0,0.0,0.0,0.0,0.0,0.0,0.0,0.0,-0.0035278063733130693,0.0005633095279335976,-0.0417703278362751,0.0,0.0,0.0,0.0,0.0,0.0,0.0,0.0,0.0,-0.21717949211597443,0.2297435998916626,10.19487190246582,0.0,0.0,0.0,0.0,0.0,0.0,0.0,0.0,0.0
1646244224.3379862,5176,1646244224,337650147,,0.0,0.0,0.0,0.0,0.0,0.0,0.0,0.0,0.0,0.0,0.0,0.0,0.0,0.014581688679754734,0.035717036575078964,-0.032182954251766205,0.0,0.0,0.0,0.0,0.0,0.0,0.0,0.0,0.0,0.10051282495260239,0.03589743748307228,9.625897407531738,0.0,0.0,0.0,0.0,0.0,0.0,0.0,0.0,0.0
1646244224.3402338,5177,1646244224,340022415,,0.0,0.0,0.0,0.0,0.0,0.0,0.0,0.0,0.0,0.0,0.0,0.0,0.0,0.01777748018503189,0.018672803416848183,-0.017269250005483627,0.0,0.0,0.0,0.0,0.0,0.0,0.0,0.0,0.0,0.39846155047416687,0.25846153497695923,9.651025772094727,0.0,0.0,0.0,0.0,0.0,0.0,0.0,0.0,0.0
1646244224.3427548,5178,1646244224,342230811,,0.0,0.0,0.0,0.0,0.0,0.0,0.0,0.0,0.0,0.0,0.0,0.0,0.0,0.024169068783521652,-0.0005019548698328435,-0.018334513530135155,0.0,0.0,0.0,0.0,0.0,0.0,0.0,0.0,0.0,0.48461538553237915,-0.20461538434028625,9.170000076293945,0.0,0.0,0.0,0.0,0.0,0.0,0.0,0.0,0.0
1646244224.3448608,5179,1646244224,344505377,,0.0,0.0,0.0,0.0,0.0,0.0,0.0,0.0,0.0,0.0,0.0,0.0,0.0,0.013516423292458057,0.021868597716093063,0.0008402442326769233,0.0,0.0,0.0,0.0,0.0,0.0,0.0,0.0,0.0,0.34282052516937256,-0.1058974415063858,9.329743385314941,0.0,0.0,0.0,0.0,0.0,0.0,0.0,0.0,0.0
1646244224.3471384,5180,1646244224,346726867,,0.0,0.0,0.0,0.0,0.0,0.0,0.0,0.0,0.0,0.0,0.0,0.0,0.0,0.02843012474477291,-0.02287250943481922,-0.0076818703673779964,0.0,0.0,0.0,0.0,0.0,0.0,0.0,0.0,0.0,0.21717949211597443,0.07538461685180664,9.801794052124023,0.0,0.0,0.0,0.0,0.0,0.0,0.0,0.0,0.0
1646244224.349434,5181,1646244224,349006971,,0.0,0.0,0.0,0.0,0.0,0.0,0.0,0.0,0.0,0.0,0.0,0.0,0.0,0.014581688679754734,0.0037591024301946163,0.024276060983538628,0.0,0.0,0.0,0.0,0.0,0.0,0.0,0.0,0.0,-0.22615385055541992,0.08974359184503555,10.027949333190918,0.0,0.0,0.0,0.0,0.0,0.0,0.0,0.0,0.0
1646244224.3516316,5182,1646244224,351209798,,0.0,0.0,0.0,0.0,0.0,0.0,0.0,0.0,0.0,0.0,0.0,0.0,0.0,-0.004593071062117815,-0.02393777295947075,-0.0076818703673779964,0.0,0.0,0.0,0.0,0.0,0.0,0.0,0.0,0.0,-0.01974359154701233,0.5384615659713745,10.351025581359863,0.0,0.0,0.0,0.0,0.0,0.0,0.0,0.0,0.0
1646244224.3538883,5183,1646244224,353423748,,0.0,0.0,0.0,0.0,0.0,0.0,0.0,0.0,0.0,0.0,0.0,0.0,0.0,0.02097327448427677,-0.020741978660225868,0.010427623987197876,0.0,0.0,0.0,0.0,0.0,0.0,0.0,0.0,0.0,0.14897435903549194,-0.03589743748307228,9.934615135192871,0.0,0.0,0.0,0.0,0.0,0.0,0.0,0.0,0.0
1646244224.3564217,5184,1646244224,355769628,,0.0,0.0,0.0,0.0,0.0,0.0,0.0,0.0,0.0,0.0,0.0,0.0,0.0,0.003929044120013714,-0.017546184360980988,0.02001500315964222,0.0,0.0,0.0,0.0,0.0,0.0,0.0,0.0,0.0,0.10948718339204788,0.42000001668930054,9.792820930480957,0.0,0.0,0.0,0.0,0.0,0.0,0.0,0.0,0.0
1646244224.3584394,5185,1646244224,358016822,,0.0,0.0,0.0,0.0,0.0,0.0,0.0,0.0,0.0,0.0,0.0,0.0,0.0,-0.0077888634987175465,-0.013285127468407154,0.029602382332086563,0.0,0.0,0.0,0.0,0.0,0.0,0.0,0.0,0.0,0.4792307913303375,-0.09871795028448105,9.433846473693848,0.0,0.0,0.0,0.0,0.0,0.0,0.0,0.0,0.0
1646244224.3606355,5186,1646244224,360222691,,0.0,0.0,0.0,0.0,0.0,0.0,0.0,0.0,0.0,0.0,0.0,0.0,0.0,0.015646953135728836,-0.025003038346767426,0.032798174768686295,0.0,0.0,0.0,0.0,0.0,0.0,0.0,0.0,0.0,0.29076921939849854,0.25846153497695923,9.464359283447266,0.0,0.0,0.0,0.0,0.0,0.0,0.0,0.0,0.0
1646244224.364358,5187,1646244224,362448557,,0.0,0.0,0.0,0.0,0.0,0.0,0.0,0.0,0.0,0.0,0.0,0.0,0.0,-0.02163730002939701,-0.0026324838399887085,0.03173290938138962,0.0,0.0,0.0,0.0,0.0,0.0,0.0,0.0,0.0,0.11666666716337204,0.19025641679763794,9.9884614944458,0.0,0.0,0.0,0.0,0.0,0.0,0.0,0.0,0.0
1646244224.3649986,5188,1646244224,364672764,,0.0,0.0,0.0,0.0,0.0,0.0,0.0,0.0,0.0,0.0,0.0,0.0,0.0,0.0028637798968702555,-0.035655677318573,0.03173290938138962,0.0,0.0,0.0,0.0,0.0,0.0,0.0,0.0,0.0,-0.1794871836900711,0.08794872462749481,9.706666946411133,0.0,0.0,0.0,0.0,0.0,0.0,0.0,0.0,0.0
1646244224.3673189,5189,1646244224,366892052,,0.0,0.0,0.0,0.0,0.0,0.0,0.0,0.0,0.0,0.0,0.0,0.0,0.0,-0.0077888634987175465,-0.026068301871418953,0.028537116944789886,0.0,0.0,0.0,0.0,0.0,0.0,0.0,0.0,0.0,-0.34282052516937256,0.5007692575454712,10.277436256408691,0.0,0.0,0.0,0.0,0.0,0.0,0.0,0.0,0.0
1646244224.3694105,5190,1646244224,369092526,,0.0,0.0,0.0,0.0,0.0,0.0,0.0,0.0,0.0,0.0,0.0,0.0,0.0,-0.0035278063733130693,-0.025003038346767426,0.04451608657836914,0.0,0.0,0.0,0.0,0.0,0.0,0.0,0.0,0.0,0.35538461804389954,-0.14358974993228912,9.532564163208008,0.0,0.0,0.0,0.0,0.0,0.0,0.0,0.0,0.0
1646244224.3717675,5191,1646244224,371306630,,0.0,0.0,0.0,0.0,0.0,0.0,0.0,0.0,0.0,0.0,0.0,0.0,0.0,-0.015245715156197548,-0.0015672193840146065,0.035993970930576324,0.0,0.0,0.0,0.0,0.0,0.0,0.0,0.0,0.0,-0.16871795058250427,0.27820512652397156,9.719230651855469,0.0,0.0,0.0,0.0,0.0,0.0,0.0,0.0,0.0
1646244224.374,5192,1646244224,373532928,,0.0,0.0,0.0,0.0,0.0,0.0,0.0,0.0,0.0,0.0,0.0,0.0,0.0,0.0007332512177526951,-0.014350391924381256,0.04238555580377579,0.0,0.0,0.0,0.0,0.0,0.0,0.0,0.0,0.0,0.1058974415063858,0.23153845965862274,9.704872131347656,0.0,0.0,0.0,0.0,0.0,0.0,0.0,0.0,0.0
1646244224.3762565,5193,1646244224,375814018,,0.0,0.0,0.0,0.0,0.0,0.0,0.0,0.0,0.0,0.0,0.0,0.0,0.0,0.006059573031961918,-0.012219863012433052,0.05303819850087166,0.0,0.0,0.0,0.0,0.0,0.0,0.0,0.0,0.0,-0.20820513367652893,0.2530769407749176,10.166154861450195,0.0,0.0,0.0,0.0,0.0,0.0,0.0,0.0,0.0
1646244224.3785398,5194,1646244224,378081502,,0.0,0.0,0.0,0.0,0.0,0.0,0.0,0.0,0.0,0.0,0.0,0.0,0.0,0.0007332512177526951,-0.0047630127519369125,0.03386344015598297,0.0,0.0,0.0,0.0,0.0,0.0,0.0,0.0,0.0,-0.16153846681118011,0.2710256576538086,10.074614524841309,0.0,0.0,0.0,0.0,0.0,0.0,0.0,0.0,0.0
1646244224.3806508,5195,1646244224,380319309,,0.0,0.0,0.0,0.0,0.0,0.0,0.0,0.0,0.0,0.0,0.0,0.0,0.0,0.011385894380509853,-0.007958807051181793,0.06262557953596115,0.0,0.0,0.0,0.0,0.0,0.0,0.0,0.0,0.0,0.2028205245733261,0.1705128252506256,9.616922378540039,0.0,0.0,0.0,0.0,0.0,0.0,0.0,0.0,0.0
1646244224.3830383,5196,1646244224,382553681,,0.0,0.0,0.0,0.0,0.0,0.0,0.0,0.0,0.0,0.0,0.0,0.0,0.0,-0.004593071062117815,0.021868597716093063,0.03386344015598297,0.0,0.0,0.0,0.0,0.0,0.0,0.0,0.0,0.0,0.003589743748307228,0.5223076939582825,9.882563591003418,0.0,0.0,0.0,0.0,0.0,0.0,0.0,0.0,0.0
1646244224.385157,5197,1646244224,384777510,,0.0,0.0,0.0,0.0,0.0,0.0,0.0,0.0,0.0,0.0,0.0,0.0,0.0,0.008190101943910122,-0.03032935969531536,0.03812449797987938,0.0,0.0,0.0,0.0,0.0,0.0,0.0,0.0,0.0,0.4738461673259735,-0.2153846174478531,9.200512886047363,0.0,0.0,0.0,0.0,0.0,0.0,0.0,0.0,0.0
1646244224.3873613,5198,1646244224,386989006,,0.0,0.0,0.0,0.0,0.0,0.0,0.0,0.0,0.0,0.0,0.0,0.0,0.0,0.001798515673726797,0.008020159788429737,0.06475610285997391,0.0,0.0,0.0,0.0,0.0,0.0,0.0,0.0,0.0,0.2710256576538086,0.2064102590084076,9.584615707397461,0.0,0.0,0.0,0.0,0.0,0.0,0.0,0.0,0.0
1646244224.3896065,5199,1646244224,389195540,,0.0,0.0,0.0,0.0,0.0,0.0,0.0,0.0,0.0,0.0,0.0,0.0,0.0,0.024169068783521652,-0.025003038346767426,0.039189763367176056,0.0,0.0,0.0,0.0,0.0,0.0,0.0,0.0,0.0,0.028717949986457825,-0.03589743748307228,9.690512657165527,0.0,0.0,0.0,0.0,0.0,0.0,0.0,0.0,0.0
1646244224.391874,5200,1646244224,391396075,,0.0,0.0,0.0,0.0,0.0,0.0,0.0,0.0,0.0,0.0,0.0,0.0,0.0,-0.004593071062117815,0.01654227450489998,0.046646613627672195,0.0,0.0,0.0,0.0,0.0,0.0,0.0,0.0,0.0,0.43794873356819153,0.28358975052833557,9.309999465942383,0.0,0.0,0.0,0.0,0.0,0.0,0.0,0.0,0.0
1646244224.3941581,5201,1646244224,393640608,,0.0,0.0,0.0,0.0,0.0,0.0,0.0,0.0,0.0,0.0,0.0,0.0,0.0,0.015646953135728836,-0.0026324838399887085,0.02640658989548683,0.0,0.0,0.0,0.0,0.0,0.0,0.0,0.0,0.0,-0.06641025841236115,0.2853846251964569,10.212820053100586,0.0,0.0,0.0,0.0,0.0,0.0,0.0,0.0,0.0
