Time,header.seq,header.stamp.secs,header.stamp.nsecs,header.frame_id,orientation.x,orientation.y,orientation.z,orientation.w,orientation_covariance_0,orientation_covariance_1,orientation_covariance_2,orientation_covariance_3,orientation_covariance_4,orientation_covariance_5,orientation_covariance_6,orientation_covariance_7,orientation_covariance_8,angular_velocity.x,angular_velocity.y,angular_velocity.z,angular_velocity_covariance_0,angular_velocity_covariance_1,angular_velocity_covariance_2,angular_velocity_covariance_3,angular_velocity_covariance_4,angular_velocity_covariance_5,angular_velocity_covariance_6,angular_velocity_covariance_7,angular_velocity_covariance_8,linear_acceleration.x,linear_acceleration.y,linear_acceleration.z,linear_acceleration_covariance_0,linear_acceleration_covariance_1,linear_acceleration_covariance_2,linear_acceleration_covariance_3,linear_acceleration_covariance_4,linear_acceleration_covariance_5,linear_acceleration_covariance_6,linear_acceleration_covariance_7,linear_acceleration_covariance_8
1646244333.9320867,6505,1646244333,931311114,,0.0,0.0,0.0,0.0,0.0,0.0,0.0,0.0,0.0,0.0,0.0,0.0,0.0,0.08169335126876831,0.032521240413188934,-0.5605541467666626,0.0,0.0,0.0,0.0,0.0,0.0,0.0,0.0,0.0,-0.07179487496614456,0.03589743748307228,9.609743118286133,0.0,0.0,0.0,0.0,0.0,0.0,0.0,0.0,0.0
1646244333.9342973,6506,1646244333,933638629,,0.0,0.0,0.0,0.0,0.0,0.0,0.0,0.0,0.0,0.0,0.0,0.0,0.0,0.0912807285785675,0.01441174652427435,-0.5403140187263489,0.0,0.0,0.0,0.0,0.0,0.0,0.0,0.0,0.0,0.13641025125980377,-0.2064102590084076,10.001025199890137,0.0,0.0,0.0,0.0,0.0,0.0,0.0,0.0,0.0
1646244333.9363663,6507,1646244333,935866012,,0.0,0.0,0.0,0.0,0.0,0.0,0.0,0.0,0.0,0.0,0.0,0.0,0.0,0.09660704433917999,0.029325447976589203,-0.5530971884727478,0.0,0.0,0.0,0.0,0.0,0.0,0.0,0.0,0.0,0.15076923370361328,0.3392307758331299,10.117691993713379,0.0,0.0,0.0,0.0,0.0,0.0,0.0,0.0,0.0
1646244333.9385657,6508,1646244333,938141577,,0.0,0.0,0.0,0.0,0.0,0.0,0.0,0.0,0.0,0.0,0.0,0.0,0.0,0.09980283677577972,0.03465176746249199,-0.5829246640205383,0.0,0.0,0.0,0.0,0.0,0.0,0.0,0.0,0.0,0.5133333206176758,0.014358974993228912,9.846667289733887,0.0,0.0,0.0,0.0,0.0,0.0,0.0,0.0,0.0
1646244333.9407043,6509,1646244333,940408374,,0.0,0.0,0.0,0.0,0.0,0.0,0.0,0.0,0.0,0.0,0.0,0.0,0.0,0.10512915998697281,0.031455978751182556,-0.5658804774284363,0.0,0.0,0.0,0.0,0.0,0.0,0.0,0.0,0.0,0.5097435712814331,-0.08974359184503555,10.115897178649902,0.0,0.0,0.0,0.0,0.0,0.0,0.0,0.0,0.0
1646244333.9429886,6510,1646244333,942647127,,0.0,0.0,0.0,0.0,0.0,0.0,0.0,0.0,0.0,0.0,0.0,0.0,0.0,0.09660704433917999,0.01973806880414486,-0.52753084897995,0.0,0.0,0.0,0.0,0.0,0.0,0.0,0.0,0.0,-0.1794871836900711,0.5600000023841858,10.284615516662598,0.0,0.0,0.0,0.0,0.0,0.0,0.0,0.0,0.0
1646244333.945208,6511,1646244333,944866794,,0.0,0.0,0.0,0.0,0.0,0.0,0.0,0.0,0.0,0.0,0.0,0.0,0.0,0.10832495242357254,-0.010089334100484848,-0.4934424161911011,0.0,0.0,0.0,0.0,0.0,0.0,0.0,0.0,0.0,0.1328205168247223,0.003589743748307228,9.995640754699707,0.0,0.0,0.0,0.0,0.0,0.0,0.0,0.0,0.0
1646244333.947597,6512,1646244333,947155706,,0.0,0.0,0.0,0.0,0.0,0.0,0.0,0.0,0.0,0.0,0.0,0.0,0.0,0.133891299366951,-0.005828278139233589,-0.5328571796417236,0.0,0.0,0.0,0.0,0.0,0.0,0.0,0.0,0.0,0.08974359184503555,0.39666667580604553,10.166154861450195,0.0,0.0,0.0,0.0,0.0,0.0,0.0,0.0,0.0
1646244333.9500442,6513,1646244333,949448764,,0.0,0.0,0.0,0.0,0.0,0.0,0.0,0.0,0.0,0.0,0.0,0.0,0.0,0.11897759884595871,-0.025003038346767426,-0.4657455384731293,0.0,0.0,0.0,0.0,0.0,0.0,0.0,0.0,0.0,0.2889743745326996,0.09512820839881897,10.24871826171875,0.0,0.0,0.0,0.0,0.0,0.0,0.0,0.0,0.0
1646244333.952268,6514,1646244333,951666740,,0.0,0.0,0.0,0.0,0.0,0.0,0.0,0.0,0.0,0.0,0.0,0.0,0.0,0.10512915998697281,-0.0026324838399887085,-0.4508318305015564,0.0,0.0,0.0,0.0,0.0,0.0,0.0,0.0,0.0,0.2620512843132019,0.8400000333786011,10.29358959197998,0.0,0.0,0.0,0.0,0.0,0.0,0.0,0.0,0.0
1646244333.9542167,6515,1646244333,953894951,,0.0,0.0,0.0,0.0,0.0,0.0,0.0,0.0,0.0,0.0,0.0,0.0,0.0,0.12110812216997147,-0.01648092083632946,-0.40715599060058594,0.0,0.0,0.0,0.0,0.0,0.0,0.0,0.0,0.0,0.3948718011379242,0.2943589687347412,9.986666679382324,0.0,0.0,0.0,0.0,0.0,0.0,0.0,0.0,0.0
1646244333.9563382,6516,1646244333,956084835,,0.0,0.0,0.0,0.0,0.0,0.0,0.0,0.0,0.0,0.0,0.0,0.0,0.0,0.11684706807136536,-0.0047630127519369125,-0.4124823212623596,0.0,0.0,0.0,0.0,0.0,0.0,0.0,0.0,0.0,0.025128206238150597,0.48461538553237915,10.275640487670898,0.0,0.0,0.0,0.0,0.0,0.0,0.0,0.0,0.0
1646244333.9585934,6517,1646244333,958337462,,0.0,0.0,0.0,0.0,0.0,0.0,0.0,0.0,0.0,0.0,0.0,0.0,0.0,0.10939021408557892,-0.03459041193127632,-0.3592190742492676,0.0,0.0,0.0,0.0,0.0,0.0,0.0,0.0,0.0,0.15794873237609863,0.2746153771877289,10.132050514221191,0.0,0.0,0.0,0.0,0.0,0.0,0.0,0.0,0.0
1646244333.9609966,6518,1646244333,960600141,,0.0,0.0,0.0,0.0,0.0,0.0,0.0,0.0,0.0,0.0,0.0,0.0,0.0,0.12323865294456482,-0.021807242184877396,-0.3325875401496887,0.0,0.0,0.0,0.0,0.0,0.0,0.0,0.0,0.0,0.05743589997291565,0.8364102840423584,10.212820053100586,0.0,0.0,0.0,0.0,0.0,0.0,0.0,0.0,0.0
1646244333.963055,6519,1646244333,962755091,,0.0,0.0,0.0,0.0,0.0,0.0,0.0,0.0,0.0,0.0,0.0,0.0,0.0,0.08915019780397415,-0.02287250943481922,-0.2963685393333435,0.0,0.0,0.0,0.0,0.0,0.0,0.0,0.0,0.0,0.3266666829586029,0.5671795010566711,10.324103355407715,0.0,0.0,0.0,0.0,0.0,0.0,0.0,0.0,0.0
1646244333.9651659,6520,1646244333,964903376,,0.0,0.0,0.0,0.0,0.0,0.0,0.0,0.0,0.0,0.0,0.0,0.0,0.0,0.09767230600118637,-0.021807242184877396,-0.23777897655963898,0.0,0.0,0.0,0.0,0.0,0.0,0.0,0.0,0.0,0.40743592381477356,0.4594871997833252,10.230769157409668,0.0,0.0,0.0,0.0,0.0,0.0,0.0,0.0,0.0
1646244333.9674242,6521,1646244333,967114083,,0.0,0.0,0.0,0.0,0.0,0.0,0.0,0.0,0.0,0.0,0.0,0.0,0.0,0.0731712281703949,-0.03245988488197327,-0.236713707447052,0.0,0.0,0.0,0.0,0.0,0.0,0.0,0.0,0.0,0.5438461303710938,0.4738461673259735,10.388717651367188,0.0,0.0,0.0,0.0,0.0,0.0,0.0,0.0,0.0
1646244333.9695694,6522,1646244333,969276236,,0.0,0.0,0.0,0.0,0.0,0.0,0.0,0.0,0.0,0.0,0.0,0.0,0.0,0.056126996874809265,-0.02287250943481922,-0.1621452122926712,0.0,0.0,0.0,0.0,0.0,0.0,0.0,0.0,0.0,0.05384615436196327,0.37871795892715454,10.09794807434082,0.0,0.0,0.0,0.0,0.0,0.0,0.0,0.0,0.0
1646244333.9717782,6523,1646244333,971527741,,0.0,0.0,0.0,0.0,0.0,0.0,0.0,0.0,0.0,0.0,0.0,0.0,0.0,0.023103805258870125,-0.020741978660225868,-0.15042731165885925,0.0,0.0,0.0,0.0,0.0,0.0,0.0,0.0,0.0,0.005384615622460842,0.7143589854240417,10.28820514678955,0.0,0.0,0.0,0.0,0.0,0.0,0.0,0.0,0.0
1646244333.9739149,6524,1646244333,973678851,,0.0,0.0,0.0,0.0,0.0,0.0,0.0,0.0,0.0,0.0,0.0,0.0,0.0,0.02523433417081833,-0.0005019548698328435,-0.0694672092795372,0.0,0.0,0.0,0.0,0.0,0.0,0.0,0.0,0.0,0.12025640904903412,0.5348718166351318,9.913077354431152,0.0,0.0,0.0,0.0,0.0,0.0,0.0,0.0,0.0
1646244333.9760966,6525,1646244333,975835368,,0.0,0.0,0.0,0.0,0.0,0.0,0.0,0.0,0.0,0.0,0.0,0.0,0.0,0.02097327448427677,-0.01967671327292919,-0.055618766695261,0.0,0.0,0.0,0.0,0.0,0.0,0.0,0.0,0.0,0.1884615421295166,0.7538461685180664,10.022564888000488,0.0,0.0,0.0,0.0,0.0,0.0,0.0,0.0,0.0
1646244333.9784982,6526,1646244333,978058610,,0.0,0.0,0.0,0.0,0.0,0.0,0.0,0.0,0.0,0.0,0.0,0.0,0.0,-0.024833092465996742,0.0016285729361698031,0.013623417355120182,0.0,0.0,0.0,0.0,0.0,0.0,0.0,0.0,0.0,0.4002564251422882,0.6389743685722351,9.787436485290527,0.0,0.0,0.0,0.0,0.0,0.0,0.0,0.0,0.0
1646244333.9808018,6527,1646244333,980422125,,0.0,0.0,0.0,0.0,0.0,0.0,0.0,0.0,0.0,0.0,0.0,0.0,0.0,-0.01844150573015213,-0.0047630127519369125,0.05197293311357498,0.0,0.0,0.0,0.0,0.0,0.0,0.0,0.0,0.0,0.09333333373069763,0.2925640940666199,9.760512351989746,0.0,0.0,0.0,0.0,0.0,0.0,0.0,0.0,0.0
1646244333.983258,6528,1646244333,982736158,,0.0,0.0,0.0,0.0,0.0,0.0,0.0,0.0,0.0,0.0,0.0,0.0,0.0,-0.05146470293402672,-0.013285127468407154,0.08073507994413376,0.0,0.0,0.0,0.0,0.0,0.0,0.0,0.0,0.0,0.010769231244921684,0.43794873356819153,10.225384712219238,0.0,0.0,0.0,0.0,0.0,0.0,0.0,0.0,0.0
1646244333.9854963,6529,1646244333,985008307,,0.0,0.0,0.0,0.0,0.0,0.0,0.0,0.0,0.0,0.0,0.0,0.0,0.0,-0.03655100241303444,0.01654227450489998,0.13825935125350952,0.0,0.0,0.0,0.0,0.0,0.0,0.0,0.0,0.0,-0.02153846248984337,0.43435898423194885,9.771282196044922,0.0,0.0,0.0,0.0,0.0,0.0,0.0,0.0,0.0
1646244333.9878206,6530,1646244333,987311429,,0.0,0.0,0.0,0.0,0.0,0.0,0.0,0.0,0.0,0.0,0.0,0.0,0.0,-0.05039943754673004,-0.0005019548698328435,0.15849937498569489,0.0,0.0,0.0,0.0,0.0,0.0,0.0,0.0,0.0,0.003589743748307228,1.0428205728530884,9.704872131347656,0.0,0.0,0.0,0.0,0.0,0.0,0.0,0.0,0.0
1646244333.9901047,6531,1646244333,989618168,,0.0,0.0,0.0,0.0,0.0,0.0,0.0,0.0,0.0,0.0,0.0,0.0,0.0,-0.06744366884231567,0.012281217612326145,0.2043057382106781,0.0,0.0,0.0,0.0,0.0,0.0,0.0,0.0,0.0,0.1058974415063858,0.5258974432945251,9.625897407531738,0.0,0.0,0.0,0.0,0.0,0.0,0.0,0.0,0.0
1646244333.9923153,6532,1646244333,991841632,,0.0,0.0,0.0,0.0,0.0,0.0,0.0,0.0,0.0,0.0,0.0,0.0,0.0,-0.05359522998332977,0.006954895332455635,0.24265524744987488,0.0,0.0,0.0,0.0,0.0,0.0,0.0,0.0,0.0,0.08435897529125214,0.2117948830127716,9.652820587158203,0.0,0.0,0.0,0.0,0.0,0.0,0.0,0.0,0.0
1646244333.9944837,6533,1646244333,994196992,,0.0,0.0,0.0,0.0,0.0,0.0,0.0,0.0,0.0,0.0,0.0,0.0,0.0,-0.02909415028989315,0.04104335606098175,0.2607647478580475,0.0,0.0,0.0,0.0,0.0,0.0,0.0,0.0,0.0,-0.016153845936059952,0.7035897970199585,9.794615745544434,0.0,0.0,0.0,0.0,0.0,0.0,0.0,0.0,0.0
1646244333.9968708,6534,1646244333,996458545,,0.0,0.0,0.0,0.0,0.0,0.0,0.0,0.0,0.0,0.0,0.0,0.0,0.0,-0.0663784071803093,0.02612965553998947,0.3150932490825653,0.0,0.0,0.0,0.0,0.0,0.0,0.0,0.0,0.0,-0.10769230872392654,0.12743589282035828,9.421281814575195,0.0,0.0,0.0,0.0,0.0,0.0,0.0,0.0,0.0
1646244333.9990458,6535,1646244333,998677323,,0.0,0.0,0.0,0.0,0.0,0.0,0.0,0.0,0.0,0.0,0.0,0.0,0.0,-0.03868153318762779,0.03465176746249199,0.33639851212501526,0.0,0.0,0.0,0.0,0.0,0.0,0.0,0.0,0.0,-0.01794871874153614,0.8848718404769897,9.674358367919922,0.0,0.0,0.0,0.0,0.0,0.0,0.0,0.0,0.0
1646244334.0012372,6536,1646244334,885673,,0.0,0.0,0.0,0.0,0.0,0.0,0.0,0.0,0.0,0.0,0.0,0.0,0.0,-0.034420475363731384,0.025064390152692795,0.3747480511665344,0.0,0.0,0.0,0.0,0.0,0.0,0.0,0.0,0.0,0.22435897588729858,0.19025641679763794,9.441025733947754,0.0,0.0,0.0,0.0,0.0,0.0,0.0,0.0,0.0
1646244334.0034537,6537,1646244334,3140623,,0.0,0.0,0.0,0.0,0.0,0.0,0.0,0.0,0.0,0.0,0.0,0.0,0.0,-0.03974679112434387,0.010150688700377941,0.3523775041103363,0.0,0.0,0.0,0.0,0.0,0.0,0.0,0.0,0.0,0.025128206238150597,1.044615387916565,9.54153823852539,0.0,0.0,0.0,0.0,0.0,0.0,0.0,0.0,0.0
1646244334.0069244,6538,1646244334,5345940,,0.0,0.0,0.0,0.0,0.0,0.0,0.0,0.0,0.0,0.0,0.0,0.0,0.0,-0.01098465733230114,0.010150688700377941,0.39285755157470703,0.0,0.0,0.0,0.0,0.0,0.0,0.0,0.0,0.0,0.2746153771877289,0.28179487586021423,9.557692527770996,0.0,0.0,0.0,0.0,0.0,0.0,0.0,0.0,0.0
1646244334.0078113,6539,1646244334,7570966,,0.0,0.0,0.0,0.0,0.0,0.0,0.0,0.0,0.0,0.0,0.0,0.0,0.0,-0.03868153318762779,0.0005633095279335976,0.4312070608139038,0.0,0.0,0.0,0.0,0.0,0.0,0.0,0.0,0.0,-0.026923077180981636,0.6264103055000305,9.625897407531738,0.0,0.0,0.0,0.0,0.0,0.0,0.0,0.0,0.0
1646244334.0101898,6540,1646244334,9846722,,0.0,0.0,0.0,0.0,0.0,0.0,0.0,0.0,0.0,0.0,0.0,0.0,0.0,-0.04613837972283363,0.025064390152692795,0.44825127720832825,0.0,0.0,0.0,0.0,0.0,0.0,0.0,0.0,0.0,-0.20820513367652893,0.2746153771877289,9.796409606933594,0.0,0.0,0.0,0.0,0.0,0.0,0.0,0.0,0.0
1646244334.0123818,6541,1646244334,12021040,,0.0,0.0,0.0,0.0,0.0,0.0,0.0,0.0,0.0,0.0,0.0,0.0,0.0,-0.024833092465996742,0.020803332328796387,0.4908618628978729,0.0,0.0,0.0,0.0,0.0,0.0,0.0,0.0,0.0,-0.032307691872119904,0.025128206238150597,9.744359016418457,0.0,0.0,0.0,0.0,0.0,0.0,0.0,0.0,0.0
1646244334.0146766,6542,1646244334,14289317,,0.0,0.0,0.0,0.0,0.0,0.0,0.0,0.0,0.0,0.0,0.0,0.0,0.0,-0.04507311433553696,0.015477010980248451,0.46209973096847534,0.0,0.0,0.0,0.0,0.0,0.0,0.0,0.0,0.0,-0.21358974277973175,0.49897435307502747,9.859230041503906,0.0,0.0,0.0,0.0,0.0,0.0,0.0,0.0,0.0
1646244334.0169713,6543,1646244334,16581793,,0.0,0.0,0.0,0.0,0.0,0.0,0.0,0.0,0.0,0.0,0.0,0.0,0.0,-0.07490052282810211,0.017607539892196655,0.5164282321929932,0.0,0.0,0.0,0.0,0.0,0.0,0.0,0.0,0.0,-0.12564103305339813,0.47564104199409485,9.677948951721191,0.0,0.0,0.0,0.0,0.0,0.0,0.0,0.0,0.0
1646244334.0191226,6544,1646244334,18803461,,0.0,0.0,0.0,0.0,0.0,0.0,0.0,0.0,0.0,0.0,0.0,0.0,0.0,-0.10472791641950607,0.018672803416848183,0.5462556481361389,0.0,0.0,0.0,0.0,0.0,0.0,0.0,0.0,0.0,-0.2297435998916626,0.7000000476837158,9.873589515686035,0.0,0.0,0.0,0.0,0.0,0.0,0.0,0.0,0.0
1646244334.0216067,6545,1646244334,21074063,,0.0,0.0,0.0,0.0,0.0,0.0,0.0,0.0,0.0,0.0,0.0,0.0,0.0,-0.10898897796869278,0.0026938372757285833,0.5281461477279663,0.0,0.0,0.0,0.0,0.0,0.0,0.0,0.0,0.0,-0.36974361538887024,0.0735897421836853,9.798205375671387,0.0,0.0,0.0,0.0,0.0,0.0,0.0,0.0,0.0
1646244334.0237143,6546,1646244334,23312208,,0.0,0.0,0.0,0.0,0.0,0.0,0.0,0.0,0.0,0.0,0.0,0.0,0.0,-0.11111950874328613,0.00588963134214282,0.5611693263053894,0.0,0.0,0.0,0.0,0.0,0.0,0.0,0.0,0.0,-0.31051284074783325,-0.04307692497968674,9.957948684692383,0.0,0.0,0.0,0.0,0.0,0.0,0.0,0.0,0.0
1646244334.0258656,6547,1646244334,25570215,,0.0,0.0,0.0,0.0,0.0,0.0,0.0,0.0,0.0,0.0,0.0,0.0,0.0,-0.14627324044704437,0.0026938372757285833,0.5302766561508179,0.0,0.0,0.0,0.0,0.0,0.0,0.0,0.0,0.0,-0.33743590116500854,0.22256410121917725,9.677948951721191,0.0,0.0,0.0,0.0,0.0,0.0,0.0,0.0,0.0
1646244334.0284133,6548,1646244334,27855525,,0.0,0.0,0.0,0.0,0.0,0.0,0.0,0.0,0.0,0.0,0.0,0.0,0.0,-0.14201217889785767,-0.01648092083632946,0.5750177502632141,0.0,0.0,0.0,0.0,0.0,0.0,0.0,0.0,0.0,-0.28358975052833557,0.47564104199409485,9.871794700622559,0.0,0.0,0.0,0.0,0.0,0.0,0.0,0.0,0.0
1646244334.030597,6549,1646244334,30143586,,0.0,0.0,0.0,0.0,0.0,0.0,0.0,0.0,0.0,0.0,0.0,0.0,0.0,-0.15692588686943054,0.021868597716093063,0.5558429956436157,0.0,0.0,0.0,0.0,0.0,0.0,0.0,0.0,0.0,-0.2530769407749176,0.2800000011920929,10.071025848388672,0.0,0.0,0.0,0.0,0.0,0.0,0.0,0.0,0.0
1646244334.0328755,6550,1646244334,32447926,,0.0,0.0,0.0,0.0,0.0,0.0,0.0,0.0,0.0,0.0,0.0,0.0,0.0,-0.15799115598201752,0.009085424244403839,0.5856704115867615,0.0,0.0,0.0,0.0,0.0,0.0,0.0,0.0,0.0,-0.35179489850997925,0.01974359154701233,9.862820625305176,0.0,0.0,0.0,0.0,0.0,0.0,0.0,0.0,0.0
1646244334.0351658,6551,1646244334,34760171,,0.0,0.0,0.0,0.0,0.0,0.0,0.0,0.0,0.0,0.0,0.0,0.0,0.0,-0.15159955620765686,0.011215953156352043,0.6016493439674377,0.0,0.0,0.0,0.0,0.0,0.0,0.0,0.0,0.0,-0.17769230902194977,-0.30153846740722656,9.677948951721191,0.0,0.0,0.0,0.0,0.0,0.0,0.0,0.0,0.0
1646244334.0373955,6552,1646244334,36989410,,0.0,0.0,0.0,0.0,0.0,0.0,0.0,0.0,0.0,0.0,0.0,0.0,0.0,-0.14201217889785767,0.004824366886168718,0.5430598258972168,0.0,0.0,0.0,0.0,0.0,0.0,0.0,0.0,0.0,-0.3679487407207489,-0.048461541533470154,10.139230728149414,0.0,0.0,0.0,0.0,0.0,0.0,0.0,0.0,0.0
1646244334.0397236,6553,1646244334,39249742,,0.0,0.0,0.0,0.0,0.0,0.0,0.0,0.0,0.0,0.0,0.0,0.0,0.0,-0.14733850955963135,-0.009024071507155895,0.5601040720939636,0.0,0.0,0.0,0.0,0.0,0.0,0.0,0.0,0.0,-0.23333333432674408,-0.11128205060958862,9.997435569763184,0.0,0.0,0.0,0.0,0.0,0.0,0.0,0.0,0.0
1646244334.04181,6554,1646244334,41461120,,0.0,0.0,0.0,0.0,0.0,0.0,0.0,0.0,0.0,0.0,0.0,0.0,0.0,-0.1313595324754715,0.015477010980248451,0.5526472330093384,0.0,0.0,0.0,0.0,0.0,0.0,0.0,0.0,0.0,-0.37512820959091187,0.05025641247630119,9.494871139526367,0.0,0.0,0.0,0.0,0.0,0.0,0.0,0.0,0.0
1646244334.0446258,6555,1646244334,43777230,,0.0,0.0,0.0,0.0,0.0,0.0,0.0,0.0,0.0,0.0,0.0,0.0,0.0,-0.1270984709262848,-0.013285127468407154,0.5249503254890442,0.0,0.0,0.0,0.0,0.0,0.0,0.0,0.0,0.0,-0.2441025674343109,-0.25846153497695923,10.035127639770508,0.0,0.0,0.0,0.0,0.0,0.0,0.0,0.0,0.0
1646244334.046359,6556,1646244334,46013594,,0.0,0.0,0.0,0.0,0.0,0.0,0.0,0.0,0.0,0.0,0.0,0.0,0.0,-0.11964162439107895,-0.012219863012433052,0.5324071645736694,0.0,0.0,0.0,0.0,0.0,0.0,0.0,0.0,0.0,-0.012564103119075298,-0.31051284074783325,10.20025634765625,0.0,0.0,0.0,0.0,0.0,0.0,0.0,0.0,0.0
1646244334.0497546,6557,1646244334,48308991,,0.0,0.0,0.0,0.0,0.0,0.0,0.0,0.0,0.0,0.0,0.0,0.0,0.0,-0.10046686232089996,-0.0026324838399887085,0.5153629779815674,0.0,0.0,0.0,0.0,0.0,0.0,0.0,0.0,0.0,-0.1741025745868683,-0.15435898303985596,9.70846176147461,0.0,0.0,0.0,0.0,0.0,0.0,0.0,0.0,0.0
1646244334.0511699,6558,1646244334,50744189,,0.0,0.0,0.0,0.0,0.0,0.0,0.0,0.0,0.0,0.0,0.0,0.0,0.0,-0.11325003206729889,-0.03778620809316635,0.49405765533447266,0.0,0.0,0.0,0.0,0.0,0.0,0.0,0.0,0.0,-0.08615384995937347,-0.7574359178543091,9.932821273803711,0.0,0.0,0.0,0.0,0.0,0.0,0.0,0.0,0.0
1646244334.0535464,6559,1646244334,53023355,,0.0,0.0,0.0,0.0,0.0,0.0,0.0,0.0,0.0,0.0,0.0,0.0,0.0,-0.0802268460392952,-0.029264096170663834,0.42907652258872986,0.0,0.0,0.0,0.0,0.0,0.0,0.0,0.0,0.0,-0.26384615898132324,-0.44333335757255554,9.859230041503906,0.0,0.0,0.0,0.0,0.0,0.0,0.0,0.0,0.0
1646244334.0557444,6560,1646244334,55302845,,0.0,0.0,0.0,0.0,0.0,0.0,0.0,0.0,0.0,0.0,0.0,0.0,0.0,-0.11431530117988586,-0.020741978660225868,0.43866389989852905,0.0,0.0,0.0,0.0,0.0,0.0,0.0,0.0,0.0,0.001794871874153614,-0.6066666841506958,9.925641059875488,0.0,0.0,0.0,0.0,0.0,0.0,0.0,0.0,0.0
1646244334.0579126,6561,1646244334,57496677,,0.0,0.0,0.0,0.0,0.0,0.0,0.0,0.0,0.0,0.0,0.0,0.0,0.0,-0.07383526116609573,-0.054830439388751984,0.366225928068161,0.0,0.0,0.0,0.0,0.0,0.0,0.0,0.0,0.0,-0.22615385055541992,-0.21717949211597443,9.90410327911377,0.0,0.0,0.0,0.0,0.0,0.0,0.0,0.0,0.0
1646244334.0602007,6562,1646244334,59722382,,0.0,0.0,0.0,0.0,0.0,0.0,0.0,0.0,0.0,0.0,0.0,0.0,0.0,-0.05146470293402672,-0.0633525550365448,0.3332027196884155,0.0,0.0,0.0,0.0,0.0,0.0,0.0,0.0,0.0,0.10051282495260239,-0.6587179899215698,9.780256271362305,0.0,0.0,0.0,0.0,0.0,0.0,0.0,0.0,0.0
1646244334.0623474,6563,1646244334,61958390,,0.0,0.0,0.0,0.0,0.0,0.0,0.0,0.0,0.0,0.0,0.0,0.0,0.0,-0.05146470293402672,-0.07080940902233124,0.3161585032939911,0.0,0.0,0.0,0.0,0.0,0.0,0.0,0.0,0.0,-0.15794873237609863,-0.5312820672988892,9.791025161743164,0.0,0.0,0.0,0.0,0.0,0.0,0.0,0.0,0.0
1646244334.0648706,6564,1646244334,64218784,,0.0,0.0,0.0,0.0,0.0,0.0,0.0,0.0,0.0,0.0,0.0,0.0,0.0,-0.024833092465996742,-0.07187467068433762,0.2831352949142456,0.0,0.0,0.0,0.0,0.0,0.0,0.0,0.0,0.0,0.05564102530479431,-0.7430769801139832,9.661794662475586,0.0,0.0,0.0,0.0,0.0,0.0,0.0,0.0,0.0
1646244334.0669963,6565,1646244334,66476006,,0.0,0.0,0.0,0.0,0.0,0.0,0.0,0.0,0.0,0.0,0.0,0.0,0.0,-0.031224681064486504,-0.05696096643805504,0.2458510547876358,0.0,0.0,0.0,0.0,0.0,0.0,0.0,0.0,0.0,-0.24051281809806824,0.18487180769443512,9.557692527770996,0.0,0.0,0.0,0.0,0.0,0.0,0.0,0.0,0.0
1646244334.069285,6566,1646244334,68721808,,0.0,0.0,0.0,0.0,0.0,0.0,0.0,0.0,0.0,0.0,0.0,0.0,0.0,-0.017376242205500603,-0.07613572478294373,0.19152256846427917,0.0,0.0,0.0,0.0,0.0,0.0,0.0,0.0,0.0,0.10410256683826447,-0.5779487490653992,9.990256309509277,0.0,0.0,0.0,0.0,0.0,0.0,0.0,0.0,0.0
1646244334.0714579,6567,1646244334,70980863,,0.0,0.0,0.0,0.0,0.0,0.0,0.0,0.0,0.0,0.0,0.0,0.0,0.0,-0.015245715156197548,-0.06867887824773788,0.17021729052066803,0.0,0.0,0.0,0.0,0.0,0.0,0.0,0.0,0.0,-0.08974359184503555,-0.6066666841506958,9.722820281982422,0.0,0.0,0.0,0.0,0.0,0.0,0.0,0.0,0.0
1646244334.0735397,6568,1646244334,73190791,,0.0,0.0,0.0,0.0,0.0,0.0,0.0,0.0,0.0,0.0,0.0,0.0,0.0,-0.005658335518091917,-0.07613572478294373,0.12654143571853638,0.0,0.0,0.0,0.0,0.0,0.0,0.0,0.0,0.0,-0.10948718339204788,-0.5366666913032532,9.816153526306152,0.0,0.0,0.0,0.0,0.0,0.0,0.0,0.0,0.0
1646244334.0758727,6569,1646244334,75397084,,0.0,0.0,0.0,0.0,0.0,0.0,0.0,0.0,0.0,0.0,0.0,0.0,0.0,-0.024833092465996742,-0.06974414736032486,0.07966981083154678,0.0,0.0,0.0,0.0,0.0,0.0,0.0,0.0,0.0,-0.24589744210243225,-0.6210256814956665,9.658205032348633,0.0,0.0,0.0,0.0,0.0,0.0,0.0,0.0,0.0
1646244334.0780082,6570,1646244334,77687204,,0.0,0.0,0.0,0.0,0.0,0.0,0.0,0.0,0.0,0.0,0.0,0.0,0.0,-0.0013972773449495435,-0.06015676259994507,0.032798174768686295,0.0,0.0,0.0,0.0,0.0,0.0,0.0,0.0,0.0,-0.18128205835819244,-0.4505128264427185,9.520000457763672,0.0,0.0,0.0,0.0,0.0,0.0,0.0,0.0,0.0
1646244334.0803306,6571,1646244334,79917529,,0.0,0.0,0.0,0.0,0.0,0.0,0.0,0.0,0.0,0.0,0.0,0.0,0.0,0.023103805258870125,-0.035655677318573,-0.04070506617426872,0.0,0.0,0.0,0.0,0.0,0.0,0.0,0.0,0.0,-0.1705128252506256,-0.49358975887298584,9.588204383850098,0.0,0.0,0.0,0.0,0.0,0.0,0.0,0.0,0.0
1646244334.0826948,6572,1646244334,82136103,,0.0,0.0,0.0,0.0,0.0,0.0,0.0,0.0,0.0,0.0,0.0,0.0,0.0,0.027364861220121384,-0.026068301871418953,-0.05348823964595795,0.0,0.0,0.0,0.0,0.0,0.0,0.0,0.0,0.0,-0.3176923394203186,-0.3948718011379242,9.591794967651367,0.0,0.0,0.0,0.0,0.0,0.0,0.0,0.0,0.0
1646244334.0848231,6573,1646244334,84393335,,0.0,0.0,0.0,0.0,0.0,0.0,0.0,0.0,0.0,0.0,0.0,0.0,0.0,0.011385894380509853,-0.04311252757906914,-0.10462092608213425,0.0,0.0,0.0,0.0,0.0,0.0,0.0,0.0,0.0,-0.08974359184503555,-0.5151281952857971,9.622307777404785,0.0,0.0,0.0,0.0,0.0,0.0,0.0,0.0,0.0
1646244334.087123,6574,1646244334,86726177,,0.0,0.0,0.0,0.0,0.0,0.0,0.0,0.0,0.0,0.0,0.0,0.0,0.0,0.03162591904401779,-0.014350391924381256,-0.19197259843349457,0.0,0.0,0.0,0.0,0.0,0.0,0.0,0.0,0.0,-0.5097435712814331,-0.43974360823631287,9.340513229370117,0.0,0.0,0.0,0.0,0.0,0.0,0.0,0.0,0.0
1646244334.0903196,6575,1646244334,89027740,,0.0,0.0,0.0,0.0,0.0,0.0,0.0,0.0,0.0,0.0,0.0,0.0,0.0,0.02949538826942444,0.010150688700377941,-0.18345049023628235,0.0,0.0,0.0,0.0,0.0,0.0,0.0,0.0,0.0,-0.16333334147930145,-0.7125641107559204,9.39794921875,0.0,0.0,0.0,0.0,0.0,0.0,0.0,0.0,0.0
1646244334.0923254,6576,1646244334,91236068,,0.0,0.0,0.0,0.0,0.0,0.0,0.0,0.0,0.0,0.0,0.0,0.0,0.0,0.016712216660380363,-0.009024071507155895,-0.23138739168643951,0.0,0.0,0.0,0.0,0.0,0.0,0.0,0.0,0.0,-0.26923078298568726,-0.4146153926849365,9.171794891357422,0.0,0.0,0.0,0.0,0.0,0.0,0.0,0.0,0.0
1646244334.0938017,6577,1646244334,93448859,,0.0,0.0,0.0,0.0,0.0,0.0,0.0,0.0,0.0,0.0,0.0,0.0,0.0,0.03908276557922363,0.015477010980248451,-0.25695374608039856,0.0,0.0,0.0,0.0,0.0,0.0,0.0,0.0,0.0,-0.2117948830127716,-0.31948718428611755,9.383589744567871,0.0,0.0,0.0,0.0,0.0,0.0,0.0,0.0,0.0
1646244334.0961676,6578,1646244334,95812068,,0.0,0.0,0.0,0.0,0.0,0.0,0.0,0.0,0.0,0.0,0.0,0.0,0.0,0.012451158836483955,0.02612965553998947,-0.2835853695869446,0.0,0.0,0.0,0.0,0.0,0.0,0.0,0.0,0.0,0.10769230872392654,-0.4361538589000702,9.55230712890625,0.0,0.0,0.0,0.0,0.0,0.0,0.0,0.0,0.0
1646244334.0981486,6579,1646244334,97975533,,0.0,0.0,0.0,0.0,0.0,0.0,0.0,0.0,0.0,0.0,0.0,0.0,0.0,0.030560653656721115,0.05169600248336792,-0.30276012420654297,0.0,0.0,0.0,0.0,0.0,0.0,0.0,0.0,0.0,0.1974359005689621,-0.4882051348686218,9.335128784179688,0.0,0.0,0.0,0.0,0.0,0.0,0.0,0.0,0.0
1646244334.1004453,6580,1646244334,100156237,,0.0,0.0,0.0,0.0,0.0,0.0,0.0,0.0,0.0,0.0,0.0,0.0,0.0,0.018842745572328568,0.04530441388487816,-0.3389791250228882,0.0,0.0,0.0,0.0,0.0,0.0,0.0,0.0,0.0,0.30512821674346924,-0.3805128335952759,9.636667251586914,0.0,0.0,0.0,0.0,0.0,0.0,0.0,0.0,0.0
1646244334.1025753,6581,1646244334,102339022,,0.0,0.0,0.0,0.0,0.0,0.0,0.0,0.0,0.0,0.0,0.0,0.0,0.0,0.04014803469181061,0.04210862144827843,-0.35069698095321655,0.0,0.0,0.0,0.0,0.0,0.0,0.0,0.0,0.0,0.24948717653751373,-0.6264103055000305,9.101795196533203,0.0,0.0,0.0,0.0,0.0,0.0,0.0,0.0,0.0
1646244334.1048646,6582,1646244334,104526607,,0.0,0.0,0.0,0.0,0.0,0.0,0.0,0.0,0.0,0.0,0.0,0.0,0.0,0.04334382712841034,0.061283376067876816,-0.4039601981639862,0.0,0.0,0.0,0.0,0.0,0.0,0.0,0.0,0.0,0.02153846248984337,0.09333333373069763,9.441025733947754,0.0,0.0,0.0,0.0,0.0,0.0,0.0,0.0,0.0
1646244334.1069384,6583,1646244334,106649331,,0.0,0.0,0.0,0.0,0.0,0.0,0.0,0.0,0.0,0.0,0.0,0.0,0.0,0.041213300079107285,0.04104335606098175,-0.43378758430480957,0.0,0.0,0.0,0.0,0.0,0.0,0.0,0.0,0.0,0.24230769276618958,-0.38410258293151855,9.661794662475586,0.0,0.0,0.0,0.0,0.0,0.0,0.0,0.0,0.0
1646244334.108977,6584,1646244334,108770198,,0.0,0.0,0.0,0.0,0.0,0.0,0.0,0.0,0.0,0.0,0.0,0.0,0.0,0.0220385380089283,0.05489179491996765,-0.44444024562835693,0.0,0.0,0.0,0.0,0.0,0.0,0.0,0.0,0.0,-0.003589743748307228,-0.5187179446220398,9.584615707397461,0.0,0.0,0.0,0.0,0.0,0.0,0.0,0.0,0.0
1646244334.1111715,6585,1646244334,110912000,,0.0,0.0,0.0,0.0,0.0,0.0,0.0,0.0,0.0,0.0,0.0,0.0,0.0,0.06464911252260208,0.0527612641453743,-0.4455054998397827,0.0,0.0,0.0,0.0,0.0,0.0,0.0,0.0,0.0,-0.0412820540368557,-0.1148717999458313,9.615128517150879,0.0,0.0,0.0,0.0,0.0,0.0,0.0,0.0,0.0
1646244334.113295,6586,1646244334,113056990,,0.0,0.0,0.0,0.0,0.0,0.0,0.0,0.0,0.0,0.0,0.0,0.0,0.0,0.05080067738890648,0.06554443389177322,-0.4732023775577545,0.0,0.0,0.0,0.0,0.0,0.0,0.0,0.0,0.0,0.06282051652669907,-0.6174359321594238,9.324358940124512,0.0,0.0,0.0,0.0,0.0,0.0,0.0,0.0,0.0
1646244334.1155076,6587,1646244334,115243366,,0.0,0.0,0.0,0.0,0.0,0.0,0.0,0.0,0.0,0.0,0.0,0.0,0.0,0.06464911252260208,0.0804581418633461,-0.4977034628391266,0.0,0.0,0.0,0.0,0.0,0.0,0.0,0.0,0.0,-0.2153846174478531,-0.3912820518016815,9.380000114440918,0.0,0.0,0.0,0.0,0.0,0.0,0.0,0.0,0.0
1646244334.1176217,6588,1646244334,117368609,,0.0,0.0,0.0,0.0,0.0,0.0,0.0,0.0,0.0,0.0,0.0,0.0,0.0,0.07423648983240128,0.035717036575078964,-0.5126171708106995,0.0,0.0,0.0,0.0,0.0,0.0,0.0,0.0,0.0,-0.08076923340559006,-0.7628205418586731,9.45358943939209,0.0,0.0,0.0,0.0,0.0,0.0,0.0,0.0,0.0
1646244334.119802,6589,1646244334,119540491,,0.0,0.0,0.0,0.0,0.0,0.0,0.0,0.0,0.0,0.0,0.0,0.0,0.0,0.08915019780397415,0.04210862144827843,-0.5200740098953247,0.0,0.0,0.0,0.0,0.0,0.0,0.0,0.0,0.0,-0.030512820929288864,-0.3033333420753479,9.91128158569336,0.0,0.0,0.0,0.0,0.0,0.0,0.0,0.0,0.0
1646244334.121875,6590,1646244334,121670203,,0.0,0.0,0.0,0.0,0.0,0.0,0.0,0.0,0.0,0.0,0.0,0.0,0.0,0.07530175894498825,0.05595706030726433,-0.5317919254302979,0.0,0.0,0.0,0.0,0.0,0.0,0.0,0.0,0.0,-0.15435898303985596,-0.5492307543754578,9.480512619018555,0.0,0.0,0.0,0.0,0.0,0.0,0.0,0.0,0.0
1646244334.1239893,6591,1646244334,123793811,,0.0,0.0,0.0,0.0,0.0,0.0,0.0,0.0,0.0,0.0,0.0,0.0,0.0,0.07956282049417496,0.053826529532670975,-0.5254003405570984,0.0,0.0,0.0,0.0,0.0,0.0,0.0,0.0,0.0,0.0,0.06461538374423981,9.582819938659668,0.0,0.0,0.0,0.0,0.0,0.0,0.0,0.0,0.0
1646244334.1262,6592,1646244334,125978461,,0.0,0.0,0.0,0.0,0.0,0.0,0.0,0.0,0.0,0.0,0.0,0.0,0.0,0.11152074486017227,0.05702231824398041,-0.5690762400627136,0.0,0.0,0.0,0.0,0.0,0.0,0.0,0.0,0.0,0.05025641247630119,-0.36974361538887024,9.534358978271484,0.0,0.0,0.0,0.0,0.0,0.0,0.0,0.0,0.0
1646244334.12831,6593,1646244334,128114358,,0.0,0.0,0.0,0.0,0.0,0.0,0.0,0.0,0.0,0.0,0.0,0.0,0.0,0.09447651356458664,0.05489179491996765,-0.5509666800498962,0.0,0.0,0.0,0.0,0.0,0.0,0.0,0.0,0.0,-0.10948718339204788,-0.14358974993228912,9.868205070495605,0.0,0.0,0.0,0.0,0.0,0.0,0.0,0.0,0.0
1646244334.1304774,6594,1646244334,130238728,,0.0,0.0,0.0,0.0,0.0,0.0,0.0,0.0,0.0,0.0,0.0,0.0,0.0,0.11258600652217865,0.04423915222287178,-0.5712067484855652,0.0,0.0,0.0,0.0,0.0,0.0,0.0,0.0,0.0,-0.1974359005689621,-0.2889743745326996,9.613333702087402,0.0,0.0,0.0,0.0,0.0,0.0,0.0,0.0,0.0
1646244334.13301,6595,1646244334,132365032,,0.0,0.0,0.0,0.0,0.0,0.0,0.0,0.0,0.0,0.0,0.0,0.0,0.0,0.09021546691656113,0.04210862144827843,-0.5445750951766968,0.0,0.0,0.0,0.0,0.0,0.0,0.0,0.0,0.0,-0.1974359005689621,0.3643589913845062,9.785640716552734,0.0,0.0,0.0,0.0,0.0,0.0,0.0,0.0,0.0
1646244334.1346252,6596,1646244334,134503001,,0.0,0.0,0.0,0.0,0.0,0.0,0.0,0.0,0.0,0.0,0.0,0.0,0.0,0.10725968331098557,0.046369679272174835,-0.5626846551895142,0.0,0.0,0.0,0.0,0.0,0.0,0.0,0.0,0.0,0.21897436678409576,-0.32846155762672424,9.88974380493164,0.0,0.0,0.0,0.0,0.0,0.0,0.0,0.0,0.0
1646244334.1368184,6597,1646244334,136617730,,0.0,0.0,0.0,0.0,0.0,0.0,0.0,0.0,0.0,0.0,0.0,0.0,0.0,0.10299862921237946,0.027194919064641,-0.5605541467666626,0.0,0.0,0.0,0.0,0.0,0.0,0.0,0.0,0.0,0.044871795922517776,0.2656410336494446,9.997435569763184,0.0,0.0,0.0,0.0,0.0,0.0,0.0,0.0,0.0
1646244334.1389928,6598,1646244334,138741082,,0.0,0.0,0.0,0.0,0.0,0.0,0.0,0.0,0.0,0.0,0.0,0.0,0.0,0.13602182269096375,0.043173886835575104,-0.5722720623016357,0.0,0.0,0.0,0.0,0.0,0.0,0.0,0.0,0.0,0.19025641679763794,0.05025641247630119,10.029743194580078,0.0,0.0,0.0,0.0,0.0,0.0,0.0,0.0,0.0
1646244334.141172,6599,1646244334,140983486,,0.0,0.0,0.0,0.0,0.0,0.0,0.0,0.0,0.0,0.0,0.0,0.0,0.0,0.11152074486017227,0.013346482068300247,-0.5573583245277405,0.0,0.0,0.0,0.0,0.0,0.0,0.0,0.0,0.0,0.2153846174478531,-0.1884615421295166,10.09615421295166,0.0,0.0,0.0,0.0,0.0,0.0,0.0,0.0,0.0
1646244334.1434255,6600,1646244334,143180960,,0.0,0.0,0.0,0.0,0.0,0.0,0.0,0.0,0.0,0.0,0.0,0.0,0.0,0.13176077604293823,0.01441174652427435,-0.5307266712188721,0.0,0.0,0.0,0.0,0.0,0.0,0.0,0.0,0.0,0.41102564334869385,0.3320513069629669,10.080000877380371,0.0,0.0,0.0,0.0,0.0,0.0,0.0,0.0,0.0
1646244334.1455607,6601,1646244334,145303809,,0.0,0.0,0.0,0.0,0.0,0.0,0.0,0.0,0.0,0.0,0.0,0.0,0.0,0.11578179895877838,-0.0005019548698328435,-0.5328571796417236,0.0,0.0,0.0,0.0,0.0,0.0,0.0,0.0,0.0,0.2117948830127716,0.3302564322948456,9.986666679382324,0.0,0.0,0.0,0.0,0.0,0.0,0.0,0.0,0.0
1646244334.1475697,6602,1646244334,147433714,,0.0,0.0,0.0,0.0,0.0,0.0,0.0,0.0,0.0,0.0,0.0,0.0,0.0,0.1477397382259369,-0.012219863012433052,-0.5360530018806458,0.0,0.0,0.0,0.0,0.0,0.0,0.0,0.0,0.0,-0.00897435937076807,0.6030769348144531,10.640000343322754,0.0,0.0,0.0,0.0,0.0,0.0,0.0,0.0,0.0
1646244334.1498637,6603,1646244334,149616468,,0.0,0.0,0.0,0.0,0.0,0.0,0.0,0.0,0.0,0.0,0.0,0.0,0.0,0.15093553066253662,0.0037591024301946163,-0.49876871705055237,0.0,0.0,0.0,0.0,0.0,0.0,0.0,0.0,0.0,0.24230769276618958,0.5223076939582825,10.133846282958984,0.0,0.0,0.0,0.0,0.0,0.0,0.0,0.0,0.0
1646244334.1520433,6604,1646244334,151806132,,0.0,0.0,0.0,0.0,0.0,0.0,0.0,0.0,0.0,0.0,0.0,0.0,0.0,0.12963023781776428,-0.015415656380355358,-0.44870129227638245,0.0,0.0,0.0,0.0,0.0,0.0,0.0,0.0,0.0,0.5115384459495544,-0.1651282161474228,10.024358749389648,0.0,0.0,0.0,0.0,0.0,0.0,0.0,0.0,0.0
1646244334.154198,6605,1646244334,153986809,,0.0,0.0,0.0,0.0,0.0,0.0,0.0,0.0,0.0,0.0,0.0,0.0,0.0,0.114716537296772,-0.0026324838399887085,-0.43911391496658325,0.0,0.0,0.0,0.0,0.0,0.0,0.0,0.0,0.0,-0.15256410837173462,0.35538461804389954,10.351025581359863,0.0,0.0,0.0,0.0,0.0,0.0,0.0,0.0,0.0
1646244334.1562576,6606,1646244334,156103776,,0.0,0.0,0.0,0.0,0.0,0.0,0.0,0.0,0.0,0.0,0.0,0.0,0.0,0.14560921490192413,-0.03459041193127632,-0.3996991217136383,0.0,0.0,0.0,0.0,0.0,0.0,0.0,0.0,0.0,0.10769230872392654,0.4361538589000702,10.523333549499512,0.0,0.0,0.0,0.0,0.0,0.0,0.0,0.0,0.0
1646244334.158516,6607,1646244334,158227862,,0.0,0.0,0.0,0.0,0.0,0.0,0.0,0.0,0.0,0.0,0.0,0.0,0.0,0.12963023781776428,-0.014350391924381256,-0.41674336791038513,0.0,0.0,0.0,0.0,0.0,0.0,0.0,0.0,0.0,0.03410256281495094,0.787948727607727,10.123077392578125,0.0,0.0,0.0,0.0,0.0,0.0,0.0,0.0,0.0
1646244334.1606965,6608,1646244334,160420212,,0.0,0.0,0.0,0.0,0.0,0.0,0.0,0.0,0.0,0.0,0.0,0.0,0.0,0.11152074486017227,-0.025003038346767426,-0.3528274893760681,0.0,0.0,0.0,0.0,0.0,0.0,0.0,0.0,0.0,0.4092307686805725,0.38410258293151855,10.205641746520996,0.0,0.0,0.0,0.0,0.0,0.0,0.0,0.0,0.0
1646244334.162723,6609,1646244334,162540747,,0.0,0.0,0.0,0.0,0.0,0.0,0.0,0.0,0.0,0.0,0.0,0.0,0.0,0.10512915998697281,-0.02713356725871563,-0.34537065029144287,0.0,0.0,0.0,0.0,0.0,0.0,0.0,0.0,0.0,0.24948717653751373,0.6282051801681519,10.4515380859375,0.0,0.0,0.0,0.0,0.0,0.0,0.0,0.0,0.0
1646244334.1650121,6610,1646244334,164685286,,0.0,0.0,0.0,0.0,0.0,0.0,0.0,0.0,0.0,0.0,0.0,0.0,0.0,0.08062808215618134,-0.029264096170663834,-0.3112822473049164,0.0,0.0,0.0,0.0,0.0,0.0,0.0,0.0,0.0,0.3589743673801422,0.6246154308319092,10.027949333190918,0.0,0.0,0.0,0.0,0.0,0.0,0.0,0.0,0.0
1646244334.1670702,6611,1646244334,166817101,,0.0,0.0,0.0,0.0,0.0,0.0,0.0,0.0,0.0,0.0,0.0,0.0,0.0,0.06571437418460846,-0.012219863012433052,-0.25801900029182434,0.0,0.0,0.0,0.0,0.0,0.0,0.0,0.0,0.0,0.19384616613388062,0.7502564191818237,10.155384063720703,0.0,0.0,0.0,0.0,0.0,0.0,0.0,0.0,0.0
1646244334.1692674,6612,1646244334,169011293,,0.0,0.0,0.0,0.0,0.0,0.0,0.0,0.0,0.0,0.0,0.0,0.0,0.0,0.06997542828321457,-0.021807242184877396,-0.22499580681324005,0.0,0.0,0.0,0.0,0.0,0.0,0.0,0.0,0.0,0.3912820518016815,0.2207692414522171,9.916666030883789,0.0,0.0,0.0,0.0,0.0,0.0,0.0,0.0,0.0
1646244334.1714597,6613,1646244334,171180086,,0.0,0.0,0.0,0.0,0.0,0.0,0.0,0.0,0.0,0.0,0.0,0.0,0.0,0.018842745572328568,-0.035655677318573,-0.16960206627845764,0.0,0.0,0.0,0.0,0.0,0.0,0.0,0.0,0.0,0.2979487180709839,1.0428205728530884,10.158974647521973,0.0,0.0,0.0,0.0,0.0,0.0,0.0,0.0,0.0
1646244334.1738906,6614,1646244334,173274557,,0.0,0.0,0.0,0.0,0.0,0.0,0.0,0.0,0.0,0.0,0.0,0.0,0.0,0.02523433417081833,-0.03032935969531536,-0.15362310409545898,0.0,0.0,0.0,0.0,0.0,0.0,0.0,0.0,0.0,0.3571794927120209,0.5600000023841858,10.017179489135742,0.0,0.0,0.0,0.0,0.0,0.0,0.0,0.0,0.0
1646244334.1756184,6615,1646244334,175444184,,0.0,0.0,0.0,0.0,0.0,0.0,0.0,0.0,0.0,0.0,0.0,0.0,0.0,0.0220385380089283,-0.036720942705869675,-0.10035987198352814,0.0,0.0,0.0,0.0,0.0,0.0,0.0,0.0,0.0,0.1651282161474228,1.0374358892440796,10.029743194580078,0.0,0.0,0.0,0.0,0.0,0.0,0.0,0.0,0.0
1646244334.177705,6616,1646244334,177573007,,0.0,0.0,0.0,0.0,0.0,0.0,0.0,0.0,0.0,0.0,0.0,0.0,0.0,-0.013115186244249344,-0.02393777295947075,-0.06414088606834412,0.0,0.0,0.0,0.0,0.0,0.0,0.0,0.0,0.0,0.10051282495260239,0.5366666913032532,9.859230041503906,0.0,0.0,0.0,0.0,0.0,0.0,0.0,0.0,0.0
1646244334.1800058,6617,1646244334,179768458,,0.0,0.0,0.0,0.0,0.0,0.0,0.0,0.0,0.0,0.0,0.0,0.0,0.0,-0.013115186244249344,-0.025003038346767426,-0.018334513530135155,0.0,0.0,0.0,0.0,0.0,0.0,0.0,0.0,0.0,0.2028205245733261,0.4361538589000702,9.891538619995117,0.0,0.0,0.0,0.0,0.0,0.0,0.0,0.0,0.0
1646244334.1820145,6618,1646244334,181893758,,0.0,0.0,0.0,0.0,0.0,0.0,0.0,0.0,0.0,0.0,0.0,0.0,0.0,-0.04081205651164055,-0.02393777295947075,0.061560314148664474,0.0,0.0,0.0,0.0,0.0,0.0,0.0,0.0,0.0,-0.08076923340559006,0.7610256671905518,9.936410903930664,0.0,0.0,0.0,0.0,0.0,0.0,0.0,0.0,0.0
1646244334.1841574,6619,1646244334,184023495,,0.0,0.0,0.0,0.0,0.0,0.0,0.0,0.0,0.0,0.0,0.0,0.0,0.0,-0.017376242205500603,-0.02287250943481922,0.09032245725393295,0.0,0.0,0.0,0.0,0.0,0.0,0.0,0.0,0.0,0.22794872522354126,0.5833333134651184,9.803589820861816,0.0,0.0,0.0,0.0,0.0,0.0,0.0,0.0,0.0
1646244334.186382,6620,1646244334,186198130,,0.0,0.0,0.0,0.0,0.0,0.0,0.0,0.0,0.0,0.0,0.0,0.0,0.0,-0.04081205651164055,-0.015415656380355358,0.11375826597213745,0.0,0.0,0.0,0.0,0.0,0.0,0.0,0.0,0.0,0.23512820899486542,0.5869230628013611,9.975897789001465,0.0,0.0,0.0,0.0,0.0,0.0,0.0,0.0,0.0
1646244334.188525,6621,1646244334,188333009,,0.0,0.0,0.0,0.0,0.0,0.0,0.0,0.0,0.0,0.0,0.0,0.0,0.0,-0.041877321898937225,-0.012219863012433052,0.143585667014122,0.0,0.0,0.0,0.0,0.0,0.0,0.0,0.0,0.0,0.032307691872119904,0.5887179374694824,9.767691612243652,0.0,0.0,0.0,0.0,0.0,0.0,0.0,0.0,0.0
1646244334.190787,6622,1646244334,190583087,,0.0,0.0,0.0,0.0,0.0,0.0,0.0,0.0,0.0,0.0,0.0,0.0,0.0,-0.05146470293402672,-0.0047630127519369125,0.20217519998550415,0.0,0.0,0.0,0.0,0.0,0.0,0.0,0.0,0.0,0.05743589997291565,0.6551282405853271,9.835898399353027,0.0,0.0,0.0,0.0,0.0,0.0,0.0,0.0,0.0
1646244334.193093,6623,1646244334,192776762,,0.0,0.0,0.0,0.0,0.0,0.0,0.0,0.0,0.0,0.0,0.0,0.0,0.0,-0.04507311433553696,0.009085424244403839,0.24265524744987488,0.0,0.0,0.0,0.0,0.0,0.0,0.0,0.0,0.0,-0.21000000834465027,0.5564102530479431,9.414102554321289,0.0,0.0,0.0,0.0,0.0,0.0,0.0,0.0,0.0
1646244334.1951902,6624,1646244334,194958047,,0.0,0.0,0.0,0.0,0.0,0.0,0.0,0.0,0.0,0.0,0.0,0.0,0.0,-0.026963621377944946,-0.006893542595207691,0.2788742482662201,0.0,0.0,0.0,0.0,0.0,0.0,0.0,0.0,0.0,0.10410256683826447,0.2943589687347412,9.593589782714844,0.0,0.0,0.0,0.0,0.0,0.0,0.0,0.0,0.0
1646244334.1972752,6625,1646244334,197083110,,0.0,0.0,0.0,0.0,0.0,0.0,0.0,0.0,0.0,0.0,0.0,0.0,0.0,-0.03228994458913803,0.01973806880414486,0.2831352949142456,0.0,0.0,0.0,0.0,0.0,0.0,0.0,0.0,0.0,0.09153846651315689,0.5169230699539185,9.564871788024902,0.0,0.0,0.0,0.0,0.0,0.0,0.0,0.0,0.0
1646244334.199498,6626,1646244334,199273354,,0.0,0.0,0.0,0.0,0.0,0.0,0.0,0.0,0.0,0.0,0.0,0.0,0.0,-0.041877321898937225,0.013346482068300247,0.3342680037021637,0.0,0.0,0.0,0.0,0.0,0.0,0.0,0.0,0.0,0.046666666865348816,0.6300000548362732,9.65999984741211,0.0,0.0,0.0,0.0,0.0,0.0,0.0,0.0,0.0
1646244334.201745,6627,1646244334,201481653,,0.0,0.0,0.0,0.0,0.0,0.0,0.0,0.0,0.0,0.0,0.0,0.0,0.0,-0.01844150573015213,-0.006893542595207691,0.33213746547698975,0.0,0.0,0.0,0.0,0.0,0.0,0.0,0.0,0.0,-0.16153846681118011,0.6425641179084778,9.74794864654541,0.0,0.0,0.0,0.0,0.0,0.0,0.0,0.0,0.0
1646244334.2038927,6628,1646244334,203680896,,0.0,0.0,0.0,0.0,0.0,0.0,0.0,0.0,0.0,0.0,0.0,0.0,0.0,-0.024833092465996742,0.020803332328796387,0.39711859822273254,0.0,0.0,0.0,0.0,0.0,0.0,0.0,0.0,0.0,-0.03410256281495094,0.3392307758331299,9.638461112976074,0.0,0.0,0.0,0.0,0.0,0.0,0.0,0.0,0.0
1646244334.2061195,6629,1646244334,205808411,,0.0,0.0,0.0,0.0,0.0,0.0,0.0,0.0,0.0,0.0,0.0,0.0,0.0,-0.037616267800331116,0.02293386124074459,0.38327017426490784,0.0,0.0,0.0,0.0,0.0,0.0,0.0,0.0,0.0,0.02153846248984337,0.6623077392578125,9.695897102355957,0.0,0.0,0.0,0.0,0.0,0.0,0.0,0.0,0.0
1646244334.2082918,6630,1646244334,207987383,,0.0,0.0,0.0,0.0,0.0,0.0,0.0,0.0,0.0,0.0,0.0,0.0,0.0,-0.031224681064486504,0.01441174652427435,0.4258807301521301,0.0,0.0,0.0,0.0,0.0,0.0,0.0,0.0,0.0,0.19205129146575928,0.17769230902194977,9.369231224060059,0.0,0.0,0.0,0.0,0.0,0.0,0.0,0.0,0.0
1646244334.2104008,6631,1646244334,210104146,,0.0,0.0,0.0,0.0,0.0,0.0,0.0,0.0,0.0,0.0,0.0,0.0,0.0,-0.04081205651164055,0.004824366886168718,0.44399023056030273,0.0,0.0,0.0,0.0,0.0,0.0,0.0,0.0,0.0,-0.10948718339204788,0.7251282334327698,9.545127868652344,0.0,0.0,0.0,0.0,0.0,0.0,0.0,0.0,0.0
1646244334.212473,6632,1646244334,212247448,,0.0,0.0,0.0,0.0,0.0,0.0,0.0,0.0,0.0,0.0,0.0,0.0,0.0,-0.023767828941345215,0.011215953156352043,0.4738176465034485,0.0,0.0,0.0,0.0,0.0,0.0,0.0,0.0,0.0,0.1794871836900711,0.028717949986457825,9.581025123596191,0.0,0.0,0.0,0.0,0.0,0.0,0.0,0.0,0.0
1646244334.2150857,6633,1646244334,214432693,,0.0,0.0,0.0,0.0,0.0,0.0,0.0,0.0,0.0,0.0,0.0,0.0,0.0,-0.059986818581819534,0.02612965553998947,0.48447027802467346,0.0,0.0,0.0,0.0,0.0,0.0,0.0,0.0,0.0,0.03948718309402466,0.5151281952857971,9.68871784210205,0.0,0.0,0.0,0.0,0.0,0.0,0.0,0.0,0.0
1646244334.2168434,6634,1646244334,216632478,,0.0,0.0,0.0,0.0,0.0,0.0,0.0,0.0,0.0,0.0,0.0,0.0,0.0,-0.070639468729496,0.023999126628041267,0.5238850712776184,0.0,0.0,0.0,0.0,0.0,0.0,0.0,0.0,0.0,-0.2028205245733261,0.47025641798973083,10.10333251953125,0.0,0.0,0.0,0.0,0.0,0.0,0.0,0.0,0.0
1646244334.2189283,6635,1646244334,218768556,,0.0,0.0,0.0,0.0,0.0,0.0,0.0,0.0,0.0,0.0,0.0,0.0,0.0,-0.10579318553209305,0.020803332328796387,0.5494514107704163,0.0,0.0,0.0,0.0,0.0,0.0,0.0,0.0,0.0,-0.24051281809806824,0.19205129146575928,9.586410522460938,0.0,0.0,0.0,0.0,0.0,0.0,0.0,0.0,0.0
1646244334.2211616,6636,1646244334,220961860,,0.0,0.0,0.0,0.0,0.0,0.0,0.0,0.0,0.0,0.0,0.0,0.0,0.0,-0.09727106988430023,0.01654227450489998,0.5409293174743652,0.0,0.0,0.0,0.0,0.0,0.0,0.0,0.0,0.0,-0.31589746475219727,0.32846155762672424,9.771282196044922,0.0,0.0,0.0,0.0,0.0,0.0,0.0,0.0,0.0
1646244334.2233603,6637,1646244334,223102800,,0.0,0.0,0.0,0.0,0.0,0.0,0.0,0.0,0.0,0.0,0.0,0.0,0.0,-0.070639468729496,0.018672803416848183,0.5664956569671631,0.0,0.0,0.0,0.0,0.0,0.0,0.0,0.0,0.0,-0.09333333373069763,-0.18666666746139526,9.758718490600586,0.0,0.0,0.0,0.0,0.0,0.0,0.0,0.0,0.0
1646244334.2255857,6638,1646244334,225305201,,0.0,0.0,0.0,0.0,0.0,0.0,0.0,0.0,0.0,0.0,0.0,0.0,0.0,-0.11325003206729889,0.020803332328796387,0.5366682410240173,0.0,0.0,0.0,0.0,0.0,0.0,0.0,0.0,0.0,-0.08076923340559006,0.12743589282035828,10.05666732788086,0.0,0.0,0.0,0.0,0.0,0.0,0.0,0.0,0.0
1646244334.2276912,6639,1646244334,227451697,,0.0,0.0,0.0,0.0,0.0,0.0,0.0,0.0,0.0,0.0,0.0,0.0,0.0,-0.12603320181369781,0.013346482068300247,0.5973883271217346,0.0,0.0,0.0,0.0,0.0,0.0,0.0,0.0,0.0,-0.2943589687347412,0.28717949986457825,9.810769081115723,0.0,0.0,0.0,0.0,0.0,0.0,0.0,0.0,0.0
1646244334.2299435,6640,1646244334,229654154,,0.0,0.0,0.0,0.0,0.0,0.0,0.0,0.0,0.0,0.0,0.0,0.0,0.0,-0.1270984709262848,0.0026938372757285833,0.5824745893478394,0.0,0.0,0.0,0.0,0.0,0.0,0.0,0.0,0.0,-0.21717949211597443,0.005384615622460842,10.088973999023438,0.0,0.0,0.0,0.0,0.0,0.0,0.0,0.0,0.0
1646244334.2319837,6641,1646244334,231782058,,0.0,0.0,0.0,0.0,0.0,0.0,0.0,0.0,0.0,0.0,0.0,0.0,0.0,-0.13029426336288452,0.035717036575078964,0.587800920009613,0.0,0.0,0.0,0.0,0.0,0.0,0.0,0.0,0.0,-0.41102564334869385,0.24230769276618958,9.677948951721191,0.0,0.0,0.0,0.0,0.0,0.0,0.0,0.0,0.0
1646244334.234169,6642,1646244334,233967475,,0.0,0.0,0.0,0.0,0.0,0.0,0.0,0.0,0.0,0.0,0.0,0.0,0.0,-0.15799115598201752,0.012281217612326145,0.5760830044746399,0.0,0.0,0.0,0.0,0.0,0.0,0.0,0.0,0.0,-0.26923078298568726,0.15256410837173462,9.990256309509277,0.0,0.0,0.0,0.0,0.0,0.0,0.0,0.0,0.0
1646244334.2363207,6643,1646244334,236131285,,0.0,0.0,0.0,0.0,0.0,0.0,0.0,0.0,0.0,0.0,0.0,0.0,0.0,-0.1398816555738449,0.006954895332455635,0.5601040720939636,0.0,0.0,0.0,0.0,0.0,0.0,0.0,0.0,0.0,-0.24948717653751373,-0.18666666746139526,9.476922988891602,0.0,0.0,0.0,0.0,0.0,0.0,0.0,0.0,0.0
1646244334.238451,6644,1646244334,238260419,,0.0,0.0,0.0,0.0,0.0,0.0,0.0,0.0,0.0,0.0,0.0,0.0,0.0,-0.11644582450389862,0.013346482068300247,0.5643650889396667,0.0,0.0,0.0,0.0,0.0,0.0,0.0,0.0,0.0,-0.36974361538887024,0.05743589997291565,10.20025634765625,0.0,0.0,0.0,0.0,0.0,0.0,0.0,0.0,0.0
1646244334.2407064,6645,1646244334,240451677,,0.0,0.0,0.0,0.0,0.0,0.0,0.0,0.0,0.0,0.0,0.0,0.0,0.0,-0.1217721477150917,0.021868597716093063,0.579278826713562,0.0,0.0,0.0,0.0,0.0,0.0,0.0,0.0,0.0,-0.25846153497695923,-0.09333333373069763,9.24179458618164,0.0,0.0,0.0,0.0,0.0,0.0,0.0,0.0,0.0
1646244334.242776,6646,1646244334,242648193,,0.0,0.0,0.0,0.0,0.0,0.0,0.0,0.0,0.0,0.0,0.0,0.0,0.0,-0.14201217889785767,0.009085424244403839,0.563299834728241,0.0,0.0,0.0,0.0,0.0,0.0,0.0,0.0,0.0,-0.26384615898132324,-0.5564102530479431,10.81051254272461,0.0,0.0,0.0,0.0,0.0,0.0,0.0,0.0,0.0
1646244334.2449474,6647,1646244334,244765965,,0.0,0.0,0.0,0.0,0.0,0.0,0.0,0.0,0.0,0.0,0.0,0.0,0.0,-0.14627324044704437,0.0005633095279335976,0.5270808339118958,0.0,0.0,0.0,0.0,0.0,0.0,0.0,0.0,0.0,-0.03769230842590332,-0.22256410121917725,9.49666690826416,0.0,0.0,0.0,0.0,0.0,0.0,0.0,0.0,0.0
1646244334.2470908,6648,1646244334,246894829,,0.0,0.0,0.0,0.0,0.0,0.0,0.0,0.0,0.0,0.0,0.0,0.0,0.0,-0.1175110936164856,0.0005633095279335976,0.5366682410240173,0.0,0.0,0.0,0.0,0.0,0.0,0.0,0.0,0.0,0.2153846174478531,-0.28717949986457825,10.180513381958008,0.0,0.0,0.0,0.0,0.0,0.0,0.0,0.0,0.0
1646244334.249192,6649,1646244334,249005375,,0.0,0.0,0.0,0.0,0.0,0.0,0.0,0.0,0.0,0.0,0.0,0.0,0.0,-0.14627324044704437,0.004824366886168718,0.5281461477279663,0.0,0.0,0.0,0.0,0.0,0.0,0.0,0.0,0.0,-0.11846154183149338,-0.10410256683826447,9.956153869628906,0.0,0.0,0.0,0.0,0.0,0.0,0.0,0.0,0.0
1646244334.2514741,6650,1646244334,251190894,,0.0,0.0,0.0,0.0,0.0,0.0,0.0,0.0,0.0,0.0,0.0,0.0,0.0,-0.1313595324754715,-0.0005019548698328435,0.48979660868644714,0.0,0.0,0.0,0.0,0.0,0.0,0.0,0.0,0.0,0.11666666716337204,-0.5833333134651184,10.149999618530273,0.0,0.0,0.0,0.0,0.0,0.0,0.0,0.0,0.0
1646244334.2537696,6651,1646244334,253386662,,0.0,0.0,0.0,0.0,0.0,0.0,0.0,0.0,0.0,0.0,0.0,0.0,0.0,-0.12816374003887177,-0.036720942705869675,0.4546428918838501,0.0,0.0,0.0,0.0,0.0,0.0,0.0,0.0,0.0,-0.17230769991874695,-0.1382051259279251,9.9399995803833,0.0,0.0,0.0,0.0,0.0,0.0,0.0,0.0,0.0
1646244334.256257,6652,1646244334,255567346,,0.0,0.0,0.0,0.0,0.0,0.0,0.0,0.0,0.0,0.0,0.0,0.0,0.0,-0.11005423963069916,-0.026068301871418953,0.41096702218055725,0.0,0.0,0.0,0.0,0.0,0.0,0.0,0.0,0.0,-0.28358975052833557,-0.3535897731781006,10.196666717529297,0.0,0.0,0.0,0.0,0.0,0.0,0.0,0.0,0.0
1646244334.2580884,6653,1646244334,257757751,,0.0,0.0,0.0,0.0,0.0,0.0,0.0,0.0,0.0,0.0,0.0,0.0,0.0,-0.12603320181369781,-0.03885146975517273,0.403510183095932,0.0,0.0,0.0,0.0,0.0,0.0,0.0,0.0,0.0,0.01974359154701233,-0.895641028881073,9.439230918884277,0.0,0.0,0.0,0.0,0.0,0.0,0.0,0.0,0.0
1646244334.2603672,6654,1646244334,259941570,,0.0,0.0,0.0,0.0,0.0,0.0,0.0,0.0,0.0,0.0,0.0,0.0,0.0,-0.07383526116609573,-0.051634643226861954,0.339594304561615,0.0,0.0,0.0,0.0,0.0,0.0,0.0,0.0,0.0,-0.13102564215660095,-0.3571794927120209,9.778461456298828,0.0,0.0,0.0,0.0,0.0,0.0,0.0,0.0,0.0
1646244334.262462,6655,1646244334,262154138,,0.0,0.0,0.0,0.0,0.0,0.0,0.0,0.0,0.0,0.0,0.0,0.0,0.0,-0.05785628780722618,-0.061222027987241745,0.32148483395576477,0.0,0.0,0.0,0.0,0.0,0.0,0.0,0.0,0.0,-0.23153845965862274,-0.5923076868057251,9.597179412841797,0.0,0.0,0.0,0.0,0.0,0.0,0.0,0.0,0.0
1646244334.264791,6656,1646244334,264390539,,0.0,0.0,0.0,0.0,0.0,0.0,0.0,0.0,0.0,0.0,0.0,0.0,0.0,-0.05359522998332977,-0.05696096643805504,0.30337533354759216,0.0,0.0,0.0,0.0,0.0,0.0,0.0,0.0,0.0,-0.3302564322948456,-0.5671795010566711,9.437435150146484,0.0,0.0,0.0,0.0,0.0,0.0,0.0,0.0,0.0
1646244334.267083,6657,1646244334,266676691,,0.0,0.0,0.0,0.0,0.0,0.0,0.0,0.0,0.0,0.0,0.0,0.0,0.0,-0.05466049537062645,-0.061222027987241745,0.28100478649139404,0.0,0.0,0.0,0.0,0.0,0.0,0.0,0.0,0.0,-0.24948717653751373,-0.4505128264427185,9.311795234680176,0.0,0.0,0.0,0.0,0.0,0.0,0.0,0.0,0.0
1646244334.2703497,6658,1646244334,268881899,,0.0,0.0,0.0,0.0,0.0,0.0,0.0,0.0,0.0,0.0,0.0,0.0,0.0,-0.02909415028989315,-0.06548308581113815,0.19258782267570496,0.0,0.0,0.0,0.0,0.0,0.0,0.0,0.0,0.0,-0.09153846651315689,-0.19564102590084076,9.74794864654541,0.0,0.0,0.0,0.0,0.0,0.0,0.0,0.0,0.0
1646244334.271469,6659,1646244334,271093861,,0.0,0.0,0.0,0.0,0.0,0.0,0.0,0.0,0.0,0.0,0.0,0.0,0.0,0.0103206317871809,-0.07400520145893097,0.1957836151123047,0.0,0.0,0.0,0.0,0.0,0.0,0.0,0.0,0.0,-0.044871795922517776,-0.8328205347061157,9.247179985046387,0.0,0.0,0.0,0.0,0.0,0.0,0.0,0.0,0.0
1646244334.2736633,6660,1646244334,273316444,,0.0,0.0,0.0,0.0,0.0,0.0,0.0,0.0,0.0,0.0,0.0,0.0,0.0,-0.023767828941345215,-0.07507046312093735,0.12441091239452362,0.0,0.0,0.0,0.0,0.0,0.0,0.0,0.0,0.0,-0.14538460969924927,-0.23153845965862274,9.9005126953125,0.0,0.0,0.0,0.0,0.0,0.0,0.0,0.0,0.0
1646244334.2760334,6661,1646244334,275583439,,0.0,0.0,0.0,0.0,0.0,0.0,0.0,0.0,0.0,0.0,0.0,0.0,0.0,0.003929044120013714,-0.07933151721954346,0.09138771891593933,0.0,0.0,0.0,0.0,0.0,0.0,0.0,0.0,0.0,-0.09871795028448105,-0.8076923489570618,9.380000114440918,0.0,0.0,0.0,0.0,0.0,0.0,0.0,0.0,0.0
1646244334.2781336,6662,1646244334,277829754,,0.0,0.0,0.0,0.0,0.0,0.0,0.0,0.0,0.0,0.0,0.0,0.0,0.0,0.0007332512177526951,-0.0676136165857315,0.05197293311357498,0.0,0.0,0.0,0.0,0.0,0.0,0.0,0.0,0.0,-0.5007692575454712,-0.4864102602005005,9.424871444702148,0.0,0.0,0.0,0.0,0.0,0.0,0.0,0.0,0.0
1646244334.2804668,6663,1646244334,280048820,,0.0,0.0,0.0,0.0,0.0,0.0,0.0,0.0,0.0,0.0,0.0,0.0,0.0,0.026299597695469856,-0.05696096643805504,-0.0023555487859994173,0.0,0.0,0.0,0.0,0.0,0.0,0.0,0.0,0.0,-0.2853846251964569,-0.4271794855594635,9.667179107666016,0.0,0.0,0.0,0.0,0.0,0.0,0.0,0.0,0.0
1646244334.2829661,6664,1646244334,282253142,,0.0,0.0,0.0,0.0,0.0,0.0,0.0,0.0,0.0,0.0,0.0,0.0,0.0,0.0007332512177526951,-0.05589570105075836,-0.03431348130106926,0.0,0.0,0.0,0.0,0.0,0.0,0.0,0.0,0.0,-0.26025640964508057,-0.6389743685722351,9.50743579864502,0.0,0.0,0.0,0.0,0.0,0.0,0.0,0.0,0.0
1646244334.2849724,6665,1646244334,284509749,,0.0,0.0,0.0,0.0,0.0,0.0,0.0,0.0,0.0,0.0,0.0,0.0,0.0,0.04334382712841034,-0.06015676259994507,-0.09503354877233505,0.0,0.0,0.0,0.0,0.0,0.0,0.0,0.0,0.0,-0.23692308366298676,-0.5815384387969971,9.740769386291504,0.0,0.0,0.0,0.0,0.0,0.0,0.0,0.0,0.0
1646244334.287208,6666,1646244334,286792621,,0.0,0.0,0.0,0.0,0.0,0.0,0.0,0.0,0.0,0.0,0.0,0.0,0.0,0.03695223852992058,-0.03139462321996689,-0.1163388341665268,0.0,0.0,0.0,0.0,0.0,0.0,0.0,0.0,0.0,-0.26384615898132324,-0.5671795010566711,9.171794891357422,0.0,0.0,0.0,0.0,0.0,0.0,0.0,0.0,0.0
1646244334.2897296,6667,1646244334,289083684,,0.0,0.0,0.0,0.0,0.0,0.0,0.0,0.0,0.0,0.0,0.0,0.0,0.0,0.038017503917217255,-0.014350391924381256,-0.16960206627845764,0.0,0.0,0.0,0.0,0.0,0.0,0.0,0.0,0.0,-0.4128205180168152,-0.10410256683826447,9.61153793334961,0.0,0.0,0.0,0.0,0.0,0.0,0.0,0.0,0.0
1646244334.2917333,6668,1646244334,291347742,,0.0,0.0,0.0,0.0,0.0,0.0,0.0,0.0,0.0,0.0,0.0,0.0,0.0,0.012451158836483955,0.011215953156352043,-0.20688630640506744,0.0,0.0,0.0,0.0,0.0,0.0,0.0,0.0,0.0,-0.34641027450561523,-0.7287179827690125,9.338717460632324,0.0,0.0,0.0,0.0,0.0,0.0,0.0,0.0,0.0
1646244334.2939742,6669,1646244334,293595848,,0.0,0.0,0.0,0.0,0.0,0.0,0.0,0.0,0.0,0.0,0.0,0.0,0.0,0.03908276557922363,0.006954895332455635,-0.24949687719345093,0.0,0.0,0.0,0.0,0.0,0.0,0.0,0.0,0.0,-0.2800000011920929,-0.12205128371715546,9.518204689025879,0.0,0.0,0.0,0.0,0.0,0.0,0.0,0.0,0.0
1646244334.296339,6670,1646244334,295822690,,0.0,0.0,0.0,0.0,0.0,0.0,0.0,0.0,0.0,0.0,0.0,0.0,0.0,0.014581688679754734,0.012281217612326145,-0.281454861164093,0.0,0.0,0.0,0.0,0.0,0.0,0.0,0.0,0.0,-0.17230769991874695,-0.21717949211597443,9.426666259765625,0.0,0.0,0.0,0.0,0.0,0.0,0.0,0.0,0.0
1646244334.2993767,6671,1646244334,298053147,,0.0,0.0,0.0,0.0,0.0,0.0,0.0,0.0,0.0,0.0,0.0,0.0,0.0,0.024169068783521652,0.03465176746249199,-0.31660857796669006,0.0,0.0,0.0,0.0,0.0,0.0,0.0,0.0,0.0,-0.09692308306694031,-0.5671795010566711,9.238204956054688,0.0,0.0,0.0,0.0,0.0,0.0,0.0,0.0,0.0
1646244334.30083,6672,1646244334,300265306,,0.0,0.0,0.0,0.0,0.0,0.0,0.0,0.0,0.0,0.0,0.0,0.0,0.0,0.030560653656721115,0.03784756362438202,-0.3155433237552643,0.0,0.0,0.0,0.0,0.0,0.0,0.0,0.0,0.0,0.05564102530479431,-0.12564103305339813,9.557692527770996,0.0,0.0,0.0,0.0,0.0,0.0,0.0,0.0,0.0
1646244334.3028972,6673,1646244334,302478416,,0.0,0.0,0.0,0.0,0.0,0.0,0.0,0.0,0.0,0.0,0.0,0.0,0.0,0.03375644609332085,0.046369679272174835,-0.34643590450286865,0.0,0.0,0.0,0.0,0.0,0.0,0.0,0.0,0.0,0.09153846651315689,-0.47025641798973083,9.220256805419922,0.0,0.0,0.0,0.0,0.0,0.0,0.0,0.0,0.0
1646244334.3051648,6674,1646244334,304745195,,0.0,0.0,0.0,0.0,0.0,0.0,0.0,0.0,0.0,0.0,0.0,0.0,0.0,0.0358869731426239,0.04743494465947151,-0.38372015953063965,0.0,0.0,0.0,0.0,0.0,0.0,0.0,0.0,0.0,0.10051282495260239,-0.7341026067733765,9.410512924194336,0.0,0.0,0.0,0.0,0.0,0.0,0.0,0.0,0.0
1646244334.3073401,6675,1646244334,306959630,,0.0,0.0,0.0,0.0,0.0,0.0,0.0,0.0,0.0,0.0,0.0,0.0,0.0,0.026299597695469856,0.03678229823708534,-0.44444024562835693,0.0,0.0,0.0,0.0,0.0,0.0,0.0,0.0,0.0,-0.0412820540368557,-0.2656410336494446,9.527179718017578,0.0,0.0,0.0,0.0,0.0,0.0,0.0,0.0,0.0
1646244334.3096683,6676,1646244334,309198849,,0.0,0.0,0.0,0.0,0.0,0.0,0.0,0.0,0.0,0.0,0.0,0.0,0.0,0.02949538826942444,0.07300128787755966,-0.4242002069950104,0.0,0.0,0.0,0.0,0.0,0.0,0.0,0.0,0.0,0.21000000834465027,-0.7933333516120911,9.406923294067383,0.0,0.0,0.0,0.0,0.0,0.0,0.0,0.0,0.0
1646244334.3119144,6677,1646244334,311555793,,0.0,0.0,0.0,0.0,0.0,0.0,0.0,0.0,0.0,0.0,0.0,0.0,0.0,0.02843012474477291,0.06767496466636658,-0.44870129227638245,0.0,0.0,0.0,0.0,0.0,0.0,0.0,0.0,0.0,-0.10230769217014313,-0.21000000834465027,9.525384902954102,0.0,0.0,0.0,0.0,0.0,0.0,0.0,0.0,0.0
1646244334.3146007,6678,1646244334,313779747,,0.0,0.0,0.0,0.0,0.0,0.0,0.0,0.0,0.0,0.0,0.0,0.0,0.0,0.06784490495920181,0.05595706030726433,-0.5051603317260742,0.0,0.0,0.0,0.0,0.0,0.0,0.0,0.0,0.0,0.17769230902194977,-0.5402564406394958,9.283077239990234,0.0,0.0,0.0,0.0,0.0,0.0,0.0,0.0,0.0
1646244334.3165035,6679,1646244334,315947044,,0.0,0.0,0.0,0.0,0.0,0.0,0.0,0.0,0.0,0.0,0.0,0.0,0.0,0.04653962329030037,0.04530441388487816,-0.4838550388813019,0.0,0.0,0.0,0.0,0.0,0.0,0.0,0.0,0.0,-0.10948718339204788,-0.14358974993228912,9.462564468383789,0.0,0.0,0.0,0.0,0.0,0.0,0.0,0.0,0.0
1646244334.3184,6680,1646244334,318117422,,0.0,0.0,0.0,0.0,0.0,0.0,0.0,0.0,0.0,0.0,0.0,0.0,0.0,0.048670150339603424,0.04530441388487816,-0.5008992552757263,0.0,0.0,0.0,0.0,0.0,0.0,0.0,0.0,0.0,0.003589743748307228,-0.5169230699539185,9.568461418151855,0.0,0.0,0.0,0.0,0.0,0.0,0.0,0.0,0.0
1646244334.3206308,6681,1646244334,320292710,,0.0,0.0,0.0,0.0,0.0,0.0,0.0,0.0,0.0,0.0,0.0,0.0,0.0,0.08915019780397415,0.05915284901857376,-0.4870508313179016,0.0,0.0,0.0,0.0,0.0,0.0,0.0,0.0,0.0,0.0825641080737114,-0.2710256576538086,9.56128215789795,0.0,0.0,0.0,0.0,0.0,0.0,0.0,0.0,0.0
1646244334.3226416,6682,1646244334,322474569,,0.0,0.0,0.0,0.0,0.0,0.0,0.0,0.0,0.0,0.0,0.0,0.0,0.0,0.06571437418460846,0.07300128787755966,-0.5264655947685242,0.0,0.0,0.0,0.0,0.0,0.0,0.0,0.0,0.0,-0.1741025745868683,-0.3769230842590332,9.575640678405762,0.0,0.0,0.0,0.0,0.0,0.0,0.0,0.0,0.0
1646244334.3247364,6683,1646244334,324593617,,0.0,0.0,0.0,0.0,0.0,0.0,0.0,0.0,0.0,0.0,0.0,0.0,0.0,0.08062808215618134,0.0527612641453743,-0.5264655947685242,0.0,0.0,0.0,0.0,0.0,0.0,0.0,0.0,0.0,0.04307692497968674,-0.4217948913574219,9.421281814575195,0.0,0.0,0.0,0.0,0.0,0.0,0.0,0.0,0.0
1646244334.3270726,6684,1646244334,326718068,,0.0,0.0,0.0,0.0,0.0,0.0,0.0,0.0,0.0,0.0,0.0,0.0,0.0,0.10619442164897919,0.07726234942674637,-0.5360530018806458,0.0,0.0,0.0,0.0,0.0,0.0,0.0,0.0,0.0,-0.007179487496614456,0.023333333432674408,9.638461112976074,0.0,0.0,0.0,0.0,0.0,0.0,0.0,0.0,0.0
1646244334.3291323,6685,1646244334,328853046,,0.0,0.0,0.0,0.0,0.0,0.0,0.0,0.0,0.0,0.0,0.0,0.0,0.0,0.11897759884595871,0.03358650580048561,-0.5669457316398621,0.0,0.0,0.0,0.0,0.0,0.0,0.0,0.0,0.0,0.14179487526416779,-0.5689743757247925,9.581025123596191,0.0,0.0,0.0,0.0,0.0,0.0,0.0,0.0,0.0
1646244334.3311245,6686,1646244334,330966324,,0.0,0.0,0.0,0.0,0.0,0.0,0.0,0.0,0.0,0.0,0.0,0.0,0.0,0.12963023781776428,0.04850020632147789,-0.5744025707244873,0.0,0.0,0.0,0.0,0.0,0.0,0.0,0.0,0.0,-0.11307692527770996,0.33743590116500854,9.796409606933594,0.0,0.0,0.0,0.0,0.0,0.0,0.0,0.0,0.0
1646244334.3332195,6687,1646244334,333064477,,0.0,0.0,0.0,0.0,0.0,0.0,0.0,0.0,0.0,0.0,0.0,0.0,0.0,0.10619442164897919,0.01973806880414486,-0.5722720623016357,0.0,0.0,0.0,0.0,0.0,0.0,0.0,0.0,0.0,0.18128205835819244,-0.39307692646980286,9.801794052124023,0.0,0.0,0.0,0.0,0.0,0.0,0.0,0.0,0.0
1646244334.3353043,6688,1646244334,335194470,,0.0,0.0,0.0,0.0,0.0,0.0,0.0,0.0,0.0,0.0,0.0,0.0,0.0,0.10832495242357254,0.05915284901857376,-0.5445750951766968,0.0,0.0,0.0,0.0,0.0,0.0,0.0,0.0,0.0,0.3266666829586029,0.025128206238150597,10.117691993713379,0.0,0.0,0.0,0.0,0.0,0.0,0.0,0.0,0.0
1646244334.3375409,6689,1646244334,337327752,,0.0,0.0,0.0,0.0,0.0,0.0,0.0,0.0,0.0,0.0,0.0,0.0,0.0,0.14454393088817596,0.00588963134214282,-0.5669457316398621,0.0,0.0,0.0,0.0,0.0,0.0,0.0,0.0,0.0,0.3482051491737366,0.06102564185857773,9.69948673248291,0.0,0.0,0.0,0.0,0.0,0.0,0.0,0.0,0.0
1646244334.3399165,6690,1646244334,339489973,,0.0,0.0,0.0,0.0,0.0,0.0,0.0,0.0,0.0,0.0,0.0,0.0,0.0,0.13495656847953796,0.03784756362438202,-0.5658804774284363,0.0,0.0,0.0,0.0,0.0,0.0,0.0,0.0,0.0,0.05743589997291565,0.35538461804389954,10.142821311950684,0.0,0.0,0.0,0.0,0.0,0.0,0.0,0.0,0.0
1646244334.3417172,6691,1646244334,341597505,,0.0,0.0,0.0,0.0,0.0,0.0,0.0,0.0,0.0,0.0,0.0,0.0,0.0,0.12110812216997147,0.018672803416848183,-0.5616194009780884,0.0,0.0,0.0,0.0,0.0,0.0,0.0,0.0,0.0,0.41102564334869385,-0.03948718309402466,10.218204498291016,0.0,0.0,0.0,0.0,0.0,0.0,0.0,0.0,0.0
1646244334.3439338,6692,1646244334,343743761,,0.0,0.0,0.0,0.0,0.0,0.0,0.0,0.0,0.0,0.0,0.0,0.0,0.0,0.11684706807136536,-0.015415656380355358,-0.514747679233551,0.0,0.0,0.0,0.0,0.0,0.0,0.0,0.0,0.0,0.2530769407749176,0.15076923370361328,10.002820014953613,0.0,0.0,0.0,0.0,0.0,0.0,0.0,0.0,0.0
1646244334.346017,6693,1646244334,345854909,,0.0,0.0,0.0,0.0,0.0,0.0,0.0,0.0,0.0,0.0,0.0,0.0,0.0,0.14560921490192413,-0.014350391924381256,-0.5136824250221252,0.0,0.0,0.0,0.0,0.0,0.0,0.0,0.0,0.0,0.3176923394203186,0.3141025900840759,10.464102745056152,0.0,0.0,0.0,0.0,0.0,0.0,0.0,0.0,0.0
1646244334.3481514,6694,1646244334,347994869,,0.0,0.0,0.0,0.0,0.0,0.0,0.0,0.0,0.0,0.0,0.0,0.0,0.0,0.1615881770849228,-0.025003038346767426,-0.5072908401489258,0.0,0.0,0.0,0.0,0.0,0.0,0.0,0.0,0.0,-0.016153845936059952,0.5241025686264038,10.392308235168457,0.0,0.0,0.0,0.0,0.0,0.0,0.0,0.0,0.0
1646244334.3502269,6695,1646244334,350101401,,0.0,0.0,0.0,0.0,0.0,0.0,0.0,0.0,0.0,0.0,0.0,0.0,0.0,0.15093553066253662,-0.0015672193840146065,-0.4881160855293274,0.0,0.0,0.0,0.0,0.0,0.0,0.0,0.0,0.0,0.33743590116500854,0.5061538815498352,10.492820739746094,0.0,0.0,0.0,0.0,0.0,0.0,0.0,0.0,0.0
1646244334.3525016,6696,1646244334,352337615,,0.0,0.0,0.0,0.0,0.0,0.0,0.0,0.0,0.0,0.0,0.0,0.0,0.0,0.12217339128255844,-0.01648092083632946,-0.4518970847129822,0.0,0.0,0.0,0.0,0.0,0.0,0.0,0.0,0.0,0.5223076939582825,0.10230769217014313,9.934615135192871,0.0,0.0,0.0,0.0,0.0,0.0,0.0,0.0,0.0
1646244334.3545926,6697,1646244334,354468420,,0.0,0.0,0.0,0.0,0.0,0.0,0.0,0.0,0.0,0.0,0.0,0.0,0.0,0.13921761512756348,-0.03032935969531536,-0.4242002069950104,0.0,0.0,0.0,0.0,0.0,0.0,0.0,0.0,0.0,0.07897436618804932,0.4325641095638275,10.221795082092285,0.0,0.0,0.0,0.0,0.0,0.0,0.0,0.0,0.0
1646244334.356771,6698,1646244334,356611849,,0.0,0.0,0.0,0.0,0.0,0.0,0.0,0.0,0.0,0.0,0.0,0.0,0.0,0.12110812216997147,-0.029264096170663834,-0.3996991217136383,0.0,0.0,0.0,0.0,0.0,0.0,0.0,0.0,0.0,-0.21358974277973175,0.6371794939041138,10.324103355407715,0.0,0.0,0.0,0.0,0.0,0.0,0.0,0.0,0.0
1646244334.3588052,6699,1646244334,358709383,,0.0,0.0,0.0,0.0,0.0,0.0,0.0,0.0,0.0,0.0,0.0,0.0,0.0,0.11152074486017227,-0.03459041193127632,-0.35495802760124207,0.0,0.0,0.0,0.0,0.0,0.0,0.0,0.0,0.0,0.20820513367652893,0.21000000834465027,10.203845977783203,0.0,0.0,0.0,0.0,0.0,0.0,0.0,0.0,0.0
1646244334.3609817,6700,1646244334,360819874,,0.0,0.0,0.0,0.0,0.0,0.0,0.0,0.0,0.0,0.0,0.0,0.0,0.0,0.11152074486017227,-0.03032935969531536,-0.34537065029144287,0.0,0.0,0.0,0.0,0.0,0.0,0.0,0.0,0.0,0.2674359083175659,0.6533333659172058,10.105128288269043,0.0,0.0,0.0,0.0,0.0,0.0,0.0,0.0,0.0
1646244334.3630686,6701,1646244334,362923327,,0.0,0.0,0.0,0.0,0.0,0.0,0.0,0.0,0.0,0.0,0.0,0.0,0.0,0.08062808215618134,0.0016285729361698031,-0.2686716318130493,0.0,0.0,0.0,0.0,0.0,0.0,0.0,0.0,0.0,0.2943589687347412,0.35538461804389954,10.327692031860352,0.0,0.0,0.0,0.0,0.0,0.0,0.0,0.0,0.0
1646244334.3653235,6702,1646244334,365098044,,0.0,0.0,0.0,0.0,0.0,0.0,0.0,0.0,0.0,0.0,0.0,0.0,0.0,0.07104069739580154,-0.039916735142469406,-0.281454861164093,0.0,0.0,0.0,0.0,0.0,0.0,0.0,0.0,0.0,0.13102564215660095,0.890256404876709,10.196666717529297,0.0,0.0,0.0,0.0,0.0,0.0,0.0,0.0,0.0
1646244334.3674872,6703,1646244334,367260678,,0.0,0.0,0.0,0.0,0.0,0.0,0.0,0.0,0.0,0.0,0.0,0.0,0.0,0.05719226226210594,-0.01967671327292919,-0.236713707447052,0.0,0.0,0.0,0.0,0.0,0.0,0.0,0.0,0.0,0.17589744925498962,0.16692309081554413,10.09794807434082,0.0,0.0,0.0,0.0,0.0,0.0,0.0,0.0,0.0
1646244334.3695621,6704,1646244334,369387184,,0.0,0.0,0.0,0.0,0.0,0.0,0.0,0.0,0.0,0.0,0.0,0.0,0.0,0.05399646982550621,-0.04098200052976608,-0.2036905139684677,0.0,0.0,0.0,0.0,0.0,0.0,0.0,0.0,0.0,0.36615386605262756,0.3392307758331299,10.365384101867676,0.0,0.0,0.0,0.0,0.0,0.0,0.0,0.0,0.0
1646244334.3717384,6705,1646244334,371539285,,0.0,0.0,0.0,0.0,0.0,0.0,0.0,0.0,0.0,0.0,0.0,0.0,0.0,0.03162591904401779,-0.03032935969531536,-0.12912200391292572,0.0,0.0,0.0,0.0,0.0,0.0,0.0,0.0,0.0,0.18666666746139526,0.3212820589542389,10.001025199890137,0.0,0.0,0.0,0.0,0.0,0.0,0.0,0.0,0.0
1646244334.3737478,6706,1646244334,373646405,,0.0,0.0,0.0,0.0,0.0,0.0,0.0,0.0,0.0,0.0,0.0,0.0,0.0,0.012451158836483955,-0.035655677318573,-0.08438090234994888,0.0,0.0,0.0,0.0,0.0,0.0,0.0,0.0,0.0,0.2028205245733261,0.901025652885437,10.268461227416992,0.0,0.0,0.0,0.0,0.0,0.0,0.0,0.0,0.0
1646244334.3758488,6707,1646244334,375750120,,0.0,0.0,0.0,0.0,0.0,0.0,0.0,0.0,0.0,0.0,0.0,0.0,0.0,0.0007332512177526951,-0.028198830783367157,-0.06414088606834412,0.0,0.0,0.0,0.0,0.0,0.0,0.0,0.0,0.0,0.3733333349227905,0.6820513010025024,9.810769081115723,0.0,0.0,0.0,0.0,0.0,0.0,0.0,0.0,0.0
1646244334.3781917,6708,1646244334,377965074,,0.0,0.0,0.0,0.0,0.0,0.0,0.0,0.0,0.0,0.0,0.0,0.0,0.0,-0.008854128420352936,-0.020741978660225868,-0.021530307829380035,0.0,0.0,0.0,0.0,0.0,0.0,0.0,0.0,0.0,0.3302564322948456,0.8525640964508057,10.218204498291016,0.0,0.0,0.0,0.0,0.0,0.0,0.0,0.0,0.0
1646244334.380699,6709,1646244334,380105728,,0.0,0.0,0.0,0.0,0.0,0.0,0.0,0.0,0.0,0.0,0.0,0.0,0.0,-0.03655100241303444,0.0005633095279335976,0.04025502875447273,0.0,0.0,0.0,0.0,0.0,0.0,0.0,0.0,0.0,0.23512820899486542,0.2387179583311081,9.997435569763184,0.0,0.0,0.0,0.0,0.0,0.0,0.0,0.0,0.0
1646244334.3823433,6710,1646244334,382210517,,0.0,0.0,0.0,0.0,0.0,0.0,0.0,0.0,0.0,0.0,0.0,0.0,0.0,-0.017376242205500603,-0.012219863012433052,0.06688663363456726,0.0,0.0,0.0,0.0,0.0,0.0,0.0,0.0,0.0,0.06461538374423981,0.8633333444595337,9.740769386291504,0.0,0.0,0.0,0.0,0.0,0.0,0.0,0.0,0.0
1646244334.3844583,6711,1646244334,384311845,,0.0,0.0,0.0,0.0,0.0,0.0,0.0,0.0,0.0,0.0,0.0,0.0,0.0,-0.03974679112434387,0.0005633095279335976,0.10949720442295074,0.0,0.0,0.0,0.0,0.0,0.0,0.0,0.0,0.0,0.3266666829586029,0.3320513069629669,9.767691612243652,0.0,0.0,0.0,0.0,0.0,0.0,0.0,0.0,0.0
1646244334.3865843,6712,1646244334,386411880,,0.0,0.0,0.0,0.0,0.0,0.0,0.0,0.0,0.0,0.0,0.0,0.0,0.0,-0.019506771117448807,-0.014350391924381256,0.1393246054649353,0.0,0.0,0.0,0.0,0.0,0.0,0.0,0.0,0.0,0.02153846248984337,0.4810256361961365,9.638461112976074,0.0,0.0,0.0,0.0,0.0,0.0,0.0,0.0,0.0
1646244334.3894413,6713,1646244334,389089286,,0.0,0.0,0.0,0.0,0.0,0.0,0.0,0.0,0.0,0.0,0.0,0.0,0.0,-0.03974679112434387,0.0026938372757285833,0.16382570564746857,0.0,0.0,0.0,0.0,0.0,0.0,0.0,0.0,0.0,0.17230769991874695,0.8058974742889404,10.04769229888916,0.0,0.0,0.0,0.0,0.0,0.0,0.0,0.0,0.0
1646244334.3917434,6714,1646244334,391352067,,0.0,0.0,0.0,0.0,0.0,0.0,0.0,0.0,0.0,0.0,0.0,0.0,0.0,-0.04507311433553696,-0.0005019548698328435,0.22880682349205017,0.0,0.0,0.0,0.0,0.0,0.0,0.0,0.0,0.0,-0.06641025841236115,0.5312820672988892,9.532564163208008,0.0,0.0,0.0,0.0,0.0,0.0,0.0,0.0,0.0
1646244334.3943377,6715,1646244334,393677740,,0.0,0.0,0.0,0.0,0.0,0.0,0.0,0.0,0.0,0.0,0.0,0.0,0.0,-0.034420475363731384,0.011215953156352043,0.2554384171962738,0.0,0.0,0.0,0.0,0.0,0.0,0.0,0.0,0.0,0.016153845936059952,0.7969231009483337,9.819743156433105,0.0,0.0,0.0,0.0,0.0,0.0,0.0,0.0,0.0
1646244334.3962932,6716,1646244334,395935605,,0.0,0.0,0.0,0.0,0.0,0.0,0.0,0.0,0.0,0.0,0.0,0.0,0.0,-0.049334172159433365,0.008020159788429737,0.2746132016181946,0.0,0.0,0.0,0.0,0.0,0.0,0.0,0.0,0.0,0.17589744925498962,0.1705128252506256,9.331538200378418,0.0,0.0,0.0,0.0,0.0,0.0,0.0,0.0,0.0
1646244334.3986213,6717,1646244334,398199640,,0.0,0.0,0.0,0.0,0.0,0.0,0.0,0.0,0.0,0.0,0.0,0.0,0.0,-0.034420475363731384,0.0037591024301946163,0.29485321044921875,0.0,0.0,0.0,0.0,0.0,0.0,0.0,0.0,0.0,0.07179487496614456,0.10948718339204788,9.60076904296875,0.0,0.0,0.0,0.0,0.0,0.0,0.0,0.0,0.0
1646244334.400847,6718,1646244334,400456204,,0.0,0.0,0.0,0.0,0.0,0.0,0.0,0.0,0.0,0.0,0.0,0.0,0.0,-0.028028886765241623,0.023999126628041267,0.32255008816719055,0.0,0.0,0.0,0.0,0.0,0.0,0.0,0.0,0.0,-0.15974359214305878,0.7179487347602844,9.532564163208008,0.0,0.0,0.0,0.0,0.0,0.0,0.0,0.0,0.0
1646244334.4034915,6719,1646244334,402711337,,0.0,0.0,0.0,0.0,0.0,0.0,0.0,0.0,0.0,0.0,0.0,0.0,0.0,-0.028028886765241623,0.028260184451937675,0.40564072132110596,0.0,0.0,0.0,0.0,0.0,0.0,0.0,0.0,0.0,0.3141025900840759,0.21897436678409576,9.545127868652344,0.0,0.0,0.0,0.0,0.0,0.0,0.0,0.0,0.0
1646244334.4054525,6720,1646244334,405025924,,0.0,0.0,0.0,0.0,0.0,0.0,0.0,0.0,0.0,0.0,0.0,0.0,0.0,-0.01844150573015213,0.018672803416848183,0.3843354284763336,0.0,0.0,0.0,0.0,0.0,0.0,0.0,0.0,0.0,0.07538461685180664,0.7251282334327698,9.566666603088379,0.0,0.0,0.0,0.0,0.0,0.0,0.0,0.0,0.0
1646244334.407613,6721,1646244334,407237494,,0.0,0.0,0.0,0.0,0.0,0.0,0.0,0.0,0.0,0.0,0.0,0.0,0.0,-0.03548574075102806,0.02612965553998947,0.4226849377155304,0.0,0.0,0.0,0.0,0.0,0.0,0.0,0.0,0.0,0.20461538434028625,0.10230769217014313,9.467948913574219,0.0,0.0,0.0,0.0,0.0,0.0,0.0,0.0,0.0
1646244334.4098995,6722,1646244334,409556050,,0.0,0.0,0.0,0.0,0.0,0.0,0.0,0.0,0.0,0.0,0.0,0.0,0.0,-0.052529964596033096,0.015477010980248451,0.4184238910675049,0.0,0.0,0.0,0.0,0.0,0.0,0.0,0.0,0.0,-0.02153846248984337,0.5438461303710938,9.55589771270752,0.0,0.0,0.0,0.0,0.0,0.0,0.0,0.0,0.0
1646244334.412201,6723,1646244334,411817389,,0.0,0.0,0.0,0.0,0.0,0.0,0.0,0.0,0.0,0.0,0.0,0.0,0.0,-0.013115186244249344,0.03358650580048561,0.45677340030670166,0.0,0.0,0.0,0.0,0.0,0.0,0.0,0.0,0.0,-0.1058974415063858,0.37512820959091187,9.713846206665039,0.0,0.0,0.0,0.0,0.0,0.0,0.0,0.0,0.0
1646244334.4144652,6724,1646244334,414100355,,0.0,0.0,0.0,0.0,0.0,0.0,0.0,0.0,0.0,0.0,0.0,0.0,0.0,-0.06211734563112259,0.020803332328796387,0.47168710827827454,0.0,0.0,0.0,0.0,0.0,0.0,0.0,0.0,0.0,-0.06461538374423981,0.13461539149284363,9.69410228729248,0.0,0.0,0.0,0.0,0.0,0.0,0.0,0.0,0.0
1646244334.4167871,6725,1646244334,416386619,,0.0,0.0,0.0,0.0,0.0,0.0,0.0,0.0,0.0,0.0,0.0,0.0,0.0,-0.07490052282810211,0.03358650580048561,0.5100366473197937,0.0,0.0,0.0,0.0,0.0,0.0,0.0,0.0,0.0,-0.36076924204826355,0.5474358797073364,9.719230651855469,0.0,0.0,0.0,0.0,0.0,0.0,0.0,0.0,0.0
1646244334.4190633,6726,1646244334,418707195,,0.0,0.0,0.0,0.0,0.0,0.0,0.0,0.0,0.0,0.0,0.0,0.0,0.0,-0.08448789268732071,0.006954895332455635,0.5185587406158447,0.0,0.0,0.0,0.0,0.0,0.0,0.0,0.0,0.0,-0.12564103305339813,0.04307692497968674,9.582819938659668,0.0,0.0,0.0,0.0,0.0,0.0,0.0,0.0,0.0
1646244334.4213414,6727,1646244334,420877959,,0.0,0.0,0.0,0.0,0.0,0.0,0.0,0.0,0.0,0.0,0.0,0.0,0.0,-0.09301000833511353,0.032521240413188934,0.5228198170661926,0.0,0.0,0.0,0.0,0.0,0.0,0.0,0.0,0.0,-0.07897436618804932,0.6551282405853271,9.801794052124023,0.0,0.0,0.0,0.0,0.0,0.0,0.0,0.0,0.0
1646244334.424278,6728,1646244334,423044382,,0.0,0.0,0.0,0.0,0.0,0.0,0.0,0.0,0.0,0.0,0.0,0.0,0.0,-0.12603320181369781,0.01654227450489998,0.5292114019393921,0.0,0.0,0.0,0.0,0.0,0.0,0.0,0.0,0.0,0.12923076748847961,-0.1471794843673706,9.539743423461914,0.0,0.0,0.0,0.0,0.0,0.0,0.0,0.0,0.0
1646244334.4256167,6729,1646244334,425243674,,0.0,0.0,0.0,0.0,0.0,0.0,0.0,0.0,0.0,0.0,0.0,0.0,0.0,-0.11644582450389862,0.021868597716093063,0.5547777414321899,0.0,0.0,0.0,0.0,0.0,0.0,0.0,0.0,0.0,-0.26923078298568726,0.25128206610679626,9.918461799621582,0.0,0.0,0.0,0.0,0.0,0.0,0.0,0.0,0.0
1646244334.4278,6730,1646244334,427449313,,0.0,0.0,0.0,0.0,0.0,0.0,0.0,0.0,0.0,0.0,0.0,0.0,0.0,-0.14094692468643188,0.01441174652427435,0.5356029868125916,0.0,0.0,0.0,0.0,0.0,0.0,0.0,0.0,0.0,-0.3733333349227905,0.26025640964508057,9.744359016418457,0.0,0.0,0.0,0.0,0.0,0.0,0.0,0.0,0.0
1646244334.4299335,6731,1646244334,429668395,,0.0,0.0,0.0,0.0,0.0,0.0,0.0,0.0,0.0,0.0,0.0,0.0,0.0,-0.13775113224983215,0.008020159788429737,0.5771482586860657,0.0,0.0,0.0,0.0,0.0,0.0,0.0,0.0,0.0,-0.38948720693588257,0.05384615436196327,9.704872131347656,0.0,0.0,0.0,0.0,0.0,0.0,0.0,0.0,0.0
1646244334.432216,6732,1646244334,431874842,,0.0,0.0,0.0,0.0,0.0,0.0,0.0,0.0,0.0,0.0,0.0,0.0,0.0,-0.13775113224983215,0.011215953156352043,0.5366682410240173,0.0,0.0,0.0,0.0,0.0,0.0,0.0,0.0,0.0,-0.4182051420211792,0.2853846251964569,10.00820541381836,0.0,0.0,0.0,0.0,0.0,0.0,0.0,0.0,0.0
1646244334.4345753,6733,1646244334,434100770,,0.0,0.0,0.0,0.0,0.0,0.0,0.0,0.0,0.0,0.0,0.0,0.0,0.0,-0.14414271712303162,0.008020159788429737,0.5686261653900146,0.0,0.0,0.0,0.0,0.0,0.0,0.0,0.0,0.0,-0.2764102518558502,-0.0825641080737114,9.89512825012207,0.0,0.0,0.0,0.0,0.0,0.0,0.0,0.0,0.0
1646244334.436725,6734,1646244334,436318689,,0.0,0.0,0.0,0.0,0.0,0.0,0.0,0.0,0.0,0.0,0.0,0.0,0.0,-0.13775113224983215,0.012281217612326145,0.5441250801086426,0.0,0.0,0.0,0.0,0.0,0.0,0.0,0.0,0.0,-0.16871795058250427,-0.2925640940666199,9.880769729614258,0.0,0.0,0.0,0.0,0.0,0.0,0.0,0.0,0.0
1646244334.4389968,6735,1646244334,438533814,,0.0,0.0,0.0,0.0,0.0,0.0,0.0,0.0,0.0,0.0,0.0,0.0,0.0,-0.1313595324754715,0.004824366886168718,0.5473209023475647,0.0,0.0,0.0,0.0,0.0,0.0,0.0,0.0,0.0,-0.5384615659713745,-0.032307691872119904,9.884359359741211,0.0,0.0,0.0,0.0,0.0,0.0,0.0,0.0,0.0
1646244334.4413178,6736,1646244334,440757525,,0.0,0.0,0.0,0.0,0.0,0.0,0.0,0.0,0.0,0.0,0.0,0.0,0.0,-0.11857635527849197,0.009085424244403839,0.5558429956436157,0.0,0.0,0.0,0.0,0.0,0.0,0.0,0.0,0.0,-0.33384618163108826,0.5528205037117004,9.566666603088379,0.0,0.0,0.0,0.0,0.0,0.0,0.0,0.0,0.0
1646244334.4432867,6737,1646244334,442968127,,0.0,0.0,0.0,0.0,0.0,0.0,0.0,0.0,0.0,0.0,0.0,0.0,0.0,-0.11538056284189224,-0.012219863012433052,0.5185587406158447,0.0,0.0,0.0,0.0,0.0,0.0,0.0,0.0,0.0,-0.18487180769443512,-0.854358971118927,10.43897533416748,0.0,0.0,0.0,0.0,0.0,0.0,0.0,0.0,0.0
1646244334.4460557,6738,1646244334,445170206,,0.0,0.0,0.0,0.0,0.0,0.0,0.0,0.0,0.0,0.0,0.0,0.0,0.0,-0.12283741682767868,0.010150688700377941,0.5025797486305237,0.0,0.0,0.0,0.0,0.0,0.0,0.0,0.0,0.0,-0.26384615898132324,-0.03769230842590332,9.272307395935059,0.0,0.0,0.0,0.0,0.0,0.0,0.0,0.0,0.0
1646244334.4476483,6739,1646244334,447370102,,0.0,0.0,0.0,0.0,0.0,0.0,0.0,0.0,0.0,0.0,0.0,0.0,0.0,-0.10898897796869278,0.0016285729361698031,0.48979660868644714,0.0,0.0,0.0,0.0,0.0,0.0,0.0,0.0,0.0,0.09333333373069763,-0.4056410491466522,9.934615135192871,0.0,0.0,0.0,0.0,0.0,0.0,0.0,0.0,0.0
1646244334.4497607,6740,1646244334,449535105,,0.0,0.0,0.0,0.0,0.0,0.0,0.0,0.0,0.0,0.0,0.0,0.0,0.0,-0.10579318553209305,-0.020741978660225868,0.4866008162498474,0.0,0.0,0.0,0.0,0.0,0.0,0.0,0.0,0.0,0.05025641247630119,0.2943589687347412,10.069230079650879,0.0,0.0,0.0,0.0,0.0,0.0,0.0,0.0,0.0
1646244334.452146,6741,1646244334,451774179,,0.0,0.0,0.0,0.0,0.0,0.0,0.0,0.0,0.0,0.0,0.0,0.0,0.0,-0.09940160065889359,-0.0047630127519369125,0.451447069644928,0.0,0.0,0.0,0.0,0.0,0.0,0.0,0.0,0.0,-0.20102564990520477,-0.33743590116500854,10.137436866760254,0.0,0.0,0.0,0.0,0.0,0.0,0.0,0.0,0.0
1646244334.4543715,6742,1646244334,453966279,,0.0,0.0,0.0,0.0,0.0,0.0,0.0,0.0,0.0,0.0,0.0,0.0,0.0,-0.1079237163066864,-0.01648092083632946,0.42481547594070435,0.0,0.0,0.0,0.0,0.0,0.0,0.0,0.0,0.0,-0.34282052516937256,0.016153845936059952,9.620512962341309,0.0,0.0,0.0,0.0,0.0,0.0,0.0,0.0,0.0
1646244334.4565334,6743,1646244334,456172890,,0.0,0.0,0.0,0.0,0.0,0.0,0.0,0.0,0.0,0.0,0.0,0.0,0.0,-0.10472791641950607,-0.04630832374095917,0.41629335284233093,0.0,0.0,0.0,0.0,0.0,0.0,0.0,0.0,0.0,-0.09692308306694031,-0.16692309081554413,10.155384063720703,0.0,0.0,0.0,0.0,0.0,0.0,0.0,0.0,0.0
1646244334.4587197,6744,1646244334,458390400,,0.0,0.0,0.0,0.0,0.0,0.0,0.0,0.0,0.0,0.0,0.0,0.0,0.0,-0.06957419961690903,-0.05696096643805504,0.3619648814201355,0.0,0.0,0.0,0.0,0.0,0.0,0.0,0.0,0.0,0.47564104199409485,-0.9279487133026123,9.498461723327637,0.0,0.0,0.0,0.0,0.0,0.0,0.0,0.0,0.0
1646244334.4609668,6745,1646244334,460626323,,0.0,0.0,0.0,0.0,0.0,0.0,0.0,0.0,0.0,0.0,0.0,0.0,0.0,-0.08661842346191406,-0.05376517400145531,0.32894167304039,0.0,0.0,0.0,0.0,0.0,0.0,0.0,0.0,0.0,0.19923077523708344,-0.24948717653751373,9.952564239501953,0.0,0.0,0.0,0.0,0.0,0.0,0.0,0.0,0.0
1646244334.4633043,6746,1646244334,462890860,,0.0,0.0,0.0,0.0,0.0,0.0,0.0,0.0,0.0,0.0,0.0,0.0,0.0,-0.04613837972283363,-0.058026235550642014,0.291657418012619,0.0,0.0,0.0,0.0,0.0,0.0,0.0,0.0,0.0,-0.44871795177459717,-0.27282050251960754,9.692307472229004,0.0,0.0,0.0,0.0,0.0,0.0,0.0,0.0,0.0
1646244334.466245,6747,1646244334,465118420,,0.0,0.0,0.0,0.0,0.0,0.0,0.0,0.0,0.0,0.0,0.0,0.0,0.0,-0.04826890677213669,-0.09317995607852936,0.23093734681606293,0.0,0.0,0.0,0.0,0.0,0.0,0.0,0.0,0.0,-0.3482051491737366,-0.5438461303710938,9.722820281982422,0.0,0.0,0.0,0.0,0.0,0.0,0.0,0.0,0.0
1646244334.4677074,6748,1646244334,467324804,,0.0,0.0,0.0,0.0,0.0,0.0,0.0,0.0,0.0,0.0,0.0,0.0,0.0,-0.034420475363731384,-0.06015676259994507,0.21708890795707703,0.0,0.0,0.0,0.0,0.0,0.0,0.0,0.0,0.0,-0.36615386605262756,-0.25487178564071655,9.701282501220703,0.0,0.0,0.0,0.0,0.0,0.0,0.0,0.0,0.0
1646244334.4700081,6749,1646244334,469745181,,0.0,0.0,0.0,0.0,0.0,0.0,0.0,0.0,0.0,0.0,0.0,0.0,0.0,-0.015245715156197548,-0.08146204799413681,0.1531730592250824,0.0,0.0,0.0,0.0,0.0,0.0,0.0,0.0,0.0,0.17230769991874695,-1.0374358892440796,9.369231224060059,0.0,0.0,0.0,0.0,0.0,0.0,0.0,0.0,0.0
1646244334.4729867,6750,1646244334,472066555,,0.0,0.0,0.0,0.0,0.0,0.0,0.0,0.0,0.0,0.0,0.0,0.0,0.0,-0.017376242205500603,-0.08998416364192963,0.143585667014122,0.0,0.0,0.0,0.0,0.0,0.0,0.0,0.0,0.0,-0.17769230902194977,-0.31948718428611755,9.45897388458252,0.0,0.0,0.0,0.0,0.0,0.0,0.0,0.0,0.0
1646244334.474717,6751,1646244334,474322601,,0.0,0.0,0.0,0.0,0.0,0.0,0.0,0.0,0.0,0.0,0.0,0.0,0.0,-0.012049921788275242,-0.09424521774053574,0.06901716440916061,0.0,0.0,0.0,0.0,0.0,0.0,0.0,0.0,0.0,0.03589743748307228,-0.7251282334327698,9.816153526306152,0.0,0.0,0.0,0.0,0.0,0.0,0.0,0.0,0.0
1646244334.4769807,6752,1646244334,476613562,,0.0,0.0,0.0,0.0,0.0,0.0,0.0,0.0,0.0,0.0,0.0,0.0,0.0,-0.004593071062117815,-0.07826624810695648,0.03812449797987938,0.0,0.0,0.0,0.0,0.0,0.0,0.0,0.0,0.0,-0.3392307758331299,-0.0825641080737114,9.559487342834473,0.0,0.0,0.0,0.0,0.0,0.0,0.0,0.0,0.0
1646244334.4793677,6753,1646244334,478914201,,0.0,0.0,0.0,0.0,0.0,0.0,0.0,0.0,0.0,0.0,0.0,0.0,0.0,0.023103805258870125,-0.06441782414913177,-0.032182954251766205,0.0,0.0,0.0,0.0,0.0,0.0,0.0,0.0,0.0,-0.5617948770523071,-0.2943589687347412,9.803589820861816,0.0,0.0,0.0,0.0,0.0,0.0,0.0,0.0,0.0
1646244334.4815342,6754,1646244334,481134040,,0.0,0.0,0.0,0.0,0.0,0.0,0.0,0.0,0.0,0.0,0.0,0.0,0.0,0.011385894380509853,-0.03885146975517273,-0.04283559322357178,0.0,0.0,0.0,0.0,0.0,0.0,0.0,0.0,0.0,-0.4271794855594635,-0.7394872307777405,9.365640640258789,0.0,0.0,0.0,0.0,0.0,0.0,0.0,0.0,0.0
1646244334.4837823,6755,1646244334,483506504,,0.0,0.0,0.0,0.0,0.0,0.0,0.0,0.0,0.0,0.0,0.0,0.0,0.0,0.026299597695469856,-0.029264096170663834,-0.0929030179977417,0.0,0.0,0.0,0.0,0.0,0.0,0.0,0.0,0.0,-0.2530769407749176,-0.43974360823631287,9.64025592803955,0.0,0.0,0.0,0.0,0.0,0.0,0.0,0.0,0.0
1646244334.4860702,6756,1646244334,485707938,,0.0,0.0,0.0,0.0,0.0,0.0,0.0,0.0,0.0,0.0,0.0,0.0,0.0,0.026299597695469856,-0.014350391924381256,-0.14083991944789886,0.0,0.0,0.0,0.0,0.0,0.0,0.0,0.0,0.0,-0.20820513367652893,-0.8830769658088684,9.200512886047363,0.0,0.0,0.0,0.0,0.0,0.0,0.0,0.0,0.0
1646244334.4882162,6757,1646244334,487894207,,0.0,0.0,0.0,0.0,0.0,0.0,0.0,0.0,0.0,0.0,0.0,0.0,0.0,0.026299597695469856,-0.017546184360980988,-0.19410313665866852,0.0,0.0,0.0,0.0,0.0,0.0,0.0,0.0,0.0,-0.4792307913303375,-0.0825641080737114,9.60615348815918,0.0,0.0,0.0,0.0,0.0,0.0,0.0,0.0,0.0
1646244334.49044,6758,1646244334,490129262,,0.0,0.0,0.0,0.0,0.0,0.0,0.0,0.0,0.0,0.0,0.0,0.0,0.0,0.026299597695469856,0.0026938372757285833,-0.21008209884166718,0.0,0.0,0.0,0.0,0.0,0.0,0.0,0.0,0.0,-0.16153846681118011,-0.5815384387969971,9.286666870117188,0.0,0.0,0.0,0.0,0.0,0.0,0.0,0.0,0.0
1646244334.492676,6759,1646244334,492333633,,0.0,0.0,0.0,0.0,0.0,0.0,0.0,0.0,0.0,0.0,0.0,0.0,0.0,0.03482171148061752,-0.015415656380355358,-0.23990949988365173,0.0,0.0,0.0,0.0,0.0,0.0,0.0,0.0,0.0,-0.2387179583311081,-0.5276923179626465,9.421281814575195,0.0,0.0,0.0,0.0,0.0,0.0,0.0,0.0,0.0
1646244334.494893,6760,1646244334,494547256,,0.0,0.0,0.0,0.0,0.0,0.0,0.0,0.0,0.0,0.0,0.0,0.0,0.0,0.00712483748793602,0.02293386124074459,-0.2931727468967438,0.0,0.0,0.0,0.0,0.0,0.0,0.0,0.0,0.0,-0.22256410121917725,-0.5330769419670105,9.186153411865234,0.0,0.0,0.0,0.0,0.0,0.0,0.0,0.0,0.0
1646244334.4970782,6761,1646244334,496754025,,0.0,0.0,0.0,0.0,0.0,0.0,0.0,0.0,0.0,0.0,0.0,0.0,0.0,0.027364861220121384,0.01973806880414486,-0.33045700192451477,0.0,0.0,0.0,0.0,0.0,0.0,0.0,0.0,0.0,0.13461539149284363,-0.4451282024383545,9.250768661499023,0.0,0.0,0.0,0.0,0.0,0.0,0.0,0.0,0.0
1646244334.4992323,6762,1646244334,498951138,,0.0,0.0,0.0,0.0,0.0,0.0,0.0,0.0,0.0,0.0,0.0,0.0,0.0,0.01777748018503189,0.02612965553998947,-0.3581538200378418,0.0,0.0,0.0,0.0,0.0,0.0,0.0,0.0,0.0,0.37512820959091187,-0.4810256361961365,9.45718002319336,0.0,0.0,0.0,0.0,0.0,0.0,0.0,0.0,0.0
1646244334.5018654,6763,1646244334,501173139,,0.0,0.0,0.0,0.0,0.0,0.0,0.0,0.0,0.0,0.0,0.0,0.0,0.0,0.015646953135728836,0.07726234942674637,-0.36561065912246704,0.0,0.0,0.0,0.0,0.0,0.0,0.0,0.0,0.0,0.29076921939849854,-0.4128205180168152,9.053333282470703,0.0,0.0,0.0,0.0,0.0,0.0,0.0,0.0,0.0
1646244334.5037665,6764,1646244334,503434486,,0.0,0.0,0.0,0.0,0.0,0.0,0.0,0.0,0.0,0.0,0.0,0.0,0.0,0.00712483748793602,0.023999126628041267,-0.40182965993881226,0.0,0.0,0.0,0.0,0.0,0.0,0.0,0.0,0.0,0.13641025125980377,-0.36974361538887024,9.537948608398438,0.0,0.0,0.0,0.0,0.0,0.0,0.0,0.0,0.0
1646244334.5060008,6765,1646244334,505644365,,0.0,0.0,0.0,0.0,0.0,0.0,0.0,0.0,0.0,0.0,0.0,0.0,0.0,0.013516423292458057,0.03358650580048561,-0.44870129227638245,0.0,0.0,0.0,0.0,0.0,0.0,0.0,0.0,0.0,-0.20820513367652893,-0.18666666746139526,9.358461380004883,0.0,0.0,0.0,0.0,0.0,0.0,0.0,0.0,0.0
1646244334.5102422,6766,1646244334,507852256,,0.0,0.0,0.0,0.0,0.0,0.0,0.0,0.0,0.0,0.0,0.0,0.0,0.0,0.041213300079107285,0.06447917222976685,-0.41567811369895935,0.0,0.0,0.0,0.0,0.0,0.0,0.0,0.0,0.0,-0.09871795028448105,-0.2674359083175659,9.907692909240723,0.0,0.0,0.0,0.0,0.0,0.0,0.0,0.0,0.0
1646244334.5103574,6767,1646244334,510076848,,0.0,0.0,0.0,0.0,0.0,0.0,0.0,0.0,0.0,0.0,0.0,0.0,0.0,0.041213300079107285,0.05169600248336792,-0.47533291578292847,0.0,0.0,0.0,0.0,0.0,0.0,0.0,0.0,0.0,-0.10230769217014313,-0.34282052516937256,9.3494873046875,0.0,0.0,0.0,0.0,0.0,0.0,0.0,0.0,0.0
1646244334.51263,6768,1646244334,512333852,,0.0,0.0,0.0,0.0,0.0,0.0,0.0,0.0,0.0,0.0,0.0,0.0,0.0,0.016712216660380363,0.058087583631277084,-0.46254974603652954,0.0,0.0,0.0,0.0,0.0,0.0,0.0,0.0,0.0,0.2064102590084076,-0.6515384912490845,8.958205223083496,0.0,0.0,0.0,0.0,0.0,0.0,0.0,0.0,0.0
1646244334.5148787,6769,1646244334,514543103,,0.0,0.0,0.0,0.0,0.0,0.0,0.0,0.0,0.0,0.0,0.0,0.0,0.0,0.03375644609332085,0.053826529532670975,-0.47107183933258057,0.0,0.0,0.0,0.0,0.0,0.0,0.0,0.0,0.0,-0.36974361538887024,-0.06461538374423981,10.024358749389648,0.0,0.0,0.0,0.0,0.0,0.0,0.0,0.0,0.0
1646244334.5170853,6770,1646244334,516734569,,0.0,0.0,0.0,0.0,0.0,0.0,0.0,0.0,0.0,0.0,0.0,0.0,0.0,0.04334382712841034,0.05915284901857376,-0.4913118779659271,0.0,0.0,0.0,0.0,0.0,0.0,0.0,0.0,0.0,-0.13102564215660095,-0.5420513153076172,9.575640678405762,0.0,0.0,0.0,0.0,0.0,0.0,0.0,0.0,0.0
1646244334.5193431,6771,1646244334,519024865,,0.0,0.0,0.0,0.0,0.0,0.0,0.0,0.0,0.0,0.0,0.0,0.0,0.0,0.05080067738890648,0.04850020632147789,-0.5328571796417236,0.0,0.0,0.0,0.0,0.0,0.0,0.0,0.0,0.0,-0.2530769407749176,-0.1328205168247223,9.957948684692383,0.0,0.0,0.0,0.0,0.0,0.0,0.0,0.0,0.0
1646244334.5216436,6772,1646244334,521235615,,0.0,0.0,0.0,0.0,0.0,0.0,0.0,0.0,0.0,0.0,0.0,0.0,0.0,0.05719226226210594,0.07300128787755966,-0.5019645094871521,0.0,0.0,0.0,0.0,0.0,0.0,0.0,0.0,0.0,0.5869230628013611,-0.5366666913032532,8.653077125549316,0.0,0.0,0.0,0.0,0.0,0.0,0.0,0.0,0.0
1646244334.5239103,6773,1646244334,523497781,,0.0,0.0,0.0,0.0,0.0,0.0,0.0,0.0,0.0,0.0,0.0,0.0,0.0,0.07956282049417496,0.04956547170877457,-0.5552278161048889,0.0,0.0,0.0,0.0,0.0,0.0,0.0,0.0,0.0,0.21358974277973175,-0.2674359083175659,9.44282054901123,0.0,0.0,0.0,0.0,0.0,0.0,0.0,0.0,0.0
1646244334.526104,6774,1646244334,525707695,,0.0,0.0,0.0,0.0,0.0,0.0,0.0,0.0,0.0,0.0,0.0,0.0,0.0,0.1008680984377861,0.027194919064641,-0.5765330791473389,0.0,0.0,0.0,0.0,0.0,0.0,0.0,0.0,0.0,0.07000000029802322,-0.24589744210243225,9.530769348144531,0.0,0.0,0.0,0.0,0.0,0.0,0.0,0.0,0.0
1646244334.5282419,6775,1646244334,527935164,,0.0,0.0,0.0,0.0,0.0,0.0,0.0,0.0,0.0,0.0,0.0,0.0,0.0,0.08915019780397415,0.05169600248336792,-0.5413793325424194,0.0,0.0,0.0,0.0,0.0,0.0,0.0,0.0,0.0,-0.1328205168247223,-0.05743589997291565,9.625897407531738,0.0,0.0,0.0,0.0,0.0,0.0,0.0,0.0,0.0
1646244334.5306063,6776,1646244334,530152430,,0.0,0.0,0.0,0.0,0.0,0.0,0.0,0.0,0.0,0.0,0.0,0.0,0.0,0.133891299366951,0.04850020632147789,-0.5658804774284363,0.0,0.0,0.0,0.0,0.0,0.0,0.0,0.0,0.0,-0.20102564990520477,0.18128205835819244,10.390512466430664,0.0,0.0,0.0,0.0,0.0,0.0,0.0,0.0,0.0
1646244334.5329192,6777,1646244334,532579888,,0.0,0.0,0.0,0.0,0.0,0.0,0.0,0.0,0.0,0.0,0.0,0.0,0.0,0.1008680984377861,0.038912829011678696,-0.5594888925552368,0.0,0.0,0.0,0.0,0.0,0.0,0.0,0.0,0.0,0.10410256683826447,-0.26384615898132324,10.09794807434082,0.0,0.0,0.0,0.0,0.0,0.0,0.0,0.0,0.0
1646244334.5351489,6778,1646244334,534790900,,0.0,0.0,0.0,0.0,0.0,0.0,0.0,0.0,0.0,0.0,0.0,0.0,0.0,0.11578179895877838,0.011215953156352043,-0.5584235787391663,0.0,0.0,0.0,0.0,0.0,0.0,0.0,0.0,0.0,-0.06102564185857773,0.2889743745326996,10.049487113952637,0.0,0.0,0.0,0.0,0.0,0.0,0.0,0.0,0.0
1646244334.5374475,6779,1646244334,537083085,,0.0,0.0,0.0,0.0,0.0,0.0,0.0,0.0,0.0,0.0,0.0,0.0,0.0,0.14560921490192413,0.011215953156352043,-0.5978384017944336,0.0,0.0,0.0,0.0,0.0,0.0,0.0,0.0,0.0,0.2997435927391052,-0.46128207445144653,9.548717498779297,0.0,0.0,0.0,0.0,0.0,0.0,0.0,0.0,0.0
1646244334.5398757,6780,1646244334,539338783,,0.0,0.0,0.0,0.0,0.0,0.0,0.0,0.0,0.0,0.0,0.0,0.0,0.0,0.14880500733852386,0.02612965553998947,-0.5371182560920715,0.0,0.0,0.0,0.0,0.0,0.0,0.0,0.0,0.0,0.2997435927391052,0.4002564251422882,9.618718147277832,0.0,0.0,0.0,0.0,0.0,0.0,0.0,0.0,0.0
1646244334.5419595,6781,1646244334,541575889,,0.0,0.0,0.0,0.0,0.0,0.0,0.0,0.0,0.0,0.0,0.0,0.0,0.0,0.1466744840145111,-0.01967671327292919,-0.5413793325424194,0.0,0.0,0.0,0.0,0.0,0.0,0.0,0.0,0.0,0.48461538553237915,0.007179487496614456,9.837692260742188,0.0,0.0,0.0,0.0,0.0,0.0,0.0,0.0,0.0
1646244334.544281,6782,1646244334,543809634,,0.0,0.0,0.0,0.0,0.0,0.0,0.0,0.0,0.0,0.0,0.0,0.0,0.0,0.15519659221172333,0.015477010980248451,-0.4913118779659271,0.0,0.0,0.0,0.0,0.0,0.0,0.0,0.0,0.0,0.16153846681118011,0.15794873237609863,9.992051124572754,0.0,0.0,0.0,0.0,0.0,0.0,0.0,0.0,0.0
1646244334.5464466,6783,1646244334,546017984,,0.0,0.0,0.0,0.0,0.0,0.0,0.0,0.0,0.0,0.0,0.0,0.0,0.0,0.15306606888771057,0.00588963134214282,-0.5232698321342468,0.0,0.0,0.0,0.0,0.0,0.0,0.0,0.0,0.0,-0.25128206610679626,0.6030769348144531,10.939743041992188,0.0,0.0,0.0,0.0,0.0,0.0,0.0,0.0,0.0
1646244334.5487244,6784,1646244334,548273629,,0.0,0.0,0.0,0.0,0.0,0.0,0.0,0.0,0.0,0.0,0.0,0.0,0.0,0.15306606888771057,-0.021807242184877396,-0.5158129334449768,0.0,0.0,0.0,0.0,0.0,0.0,0.0,0.0,0.0,0.025128206238150597,0.30512821674346924,10.532307624816895,0.0,0.0,0.0,0.0,0.0,0.0,0.0,0.0,0.0
1646244334.5524402,6785,1646244334,550587190,,0.0,0.0,0.0,0.0,0.0,0.0,0.0,0.0,0.0,0.0,0.0,0.0,0.0,0.15519659221172333,-0.01115459855645895,-0.47746342420578003,0.0,0.0,0.0,0.0,0.0,0.0,0.0,0.0,0.0,0.6461538672447205,0.21717949211597443,10.189486503601074,0.0,0.0,0.0,0.0,0.0,0.0,0.0,0.0,0.0
1646244334.5531266,6786,1646244334,552760685,,0.0,0.0,0.0,0.0,0.0,0.0,0.0,0.0,0.0,0.0,0.0,0.0,0.0,0.1381523609161377,-0.02393777295947075,-0.4359181225299835,0.0,0.0,0.0,0.0,0.0,0.0,0.0,0.0,0.0,0.35179489850997925,0.09512820839881897,9.966922760009766,0.0,0.0,0.0,0.0,0.0,0.0,0.0,0.0,0.0
1646244334.5552325,6787,1646244334,554950220,,0.0,0.0,0.0,0.0,0.0,0.0,0.0,0.0,0.0,0.0,0.0,0.0,0.0,0.12217339128255844,-0.018611449748277664,-0.3720022439956665,0.0,0.0,0.0,0.0,0.0,0.0,0.0,0.0,0.0,0.016153845936059952,0.3769230842590332,10.733333587646484,0.0,0.0,0.0,0.0,0.0,0.0,0.0,0.0,0.0
1646244334.5576186,6788,1646244334,557168388,,0.0,0.0,0.0,0.0,0.0,0.0,0.0,0.0,0.0,0.0,0.0,0.0,0.0,0.16371871531009674,-0.021807242184877396,-0.41567811369895935,0.0,0.0,0.0,0.0,0.0,0.0,0.0,0.0,0.0,-0.08435897529125214,0.947692334651947,10.704615592956543,0.0,0.0,0.0,0.0,0.0,0.0,0.0,0.0,0.0
1646244334.5598993,6789,1646244334,559428263,,0.0,0.0,0.0,0.0,0.0,0.0,0.0,0.0,0.0,0.0,0.0,0.0,0.0,0.14987027645111084,-0.044177792966365814,-0.35495802760124207,0.0,0.0,0.0,0.0,0.0,0.0,0.0,0.0,0.0,0.40743592381477356,0.21358974277973175,10.250513076782227,0.0,0.0,0.0,0.0,0.0,0.0,0.0,0.0,0.0
1646244334.5619173,6790,1646244334,561636126,,0.0,0.0,0.0,0.0,0.0,0.0,0.0,0.0,0.0,0.0,0.0,0.0,0.0,0.11578179895877838,-0.03885146975517273,-0.2931727468967438,0.0,0.0,0.0,0.0,0.0,0.0,0.0,0.0,0.0,0.25128206610679626,0.6982051730155945,10.566410064697266,0.0,0.0,0.0,0.0,0.0,0.0,0.0,0.0,0.0
1646244334.5641472,6791,1646244334,563836966,,0.0,0.0,0.0,0.0,0.0,0.0,0.0,0.0,0.0,0.0,0.0,0.0,0.0,0.08808493614196777,-0.047373585402965546,-0.2697369158267975,0.0,0.0,0.0,0.0,0.0,0.0,0.0,0.0,0.0,0.7430769801139832,0.23512820899486542,9.756922721862793,0.0,0.0,0.0,0.0,0.0,0.0,0.0,0.0,0.0
1646244334.5663896,6792,1646244334,566053253,,0.0,0.0,0.0,0.0,0.0,0.0,0.0,0.0,0.0,0.0,0.0,0.0,0.0,0.08488914370536804,-0.05269990861415863,-0.24310529232025146,0.0,0.0,0.0,0.0,0.0,0.0,0.0,0.0,0.0,0.7215384840965271,0.8328205347061157,9.703076362609863,0.0,0.0,0.0,0.0,0.0,0.0,0.0,0.0,0.0
1646244334.568832,6793,1646244334,568357309,,0.0,0.0,0.0,0.0,0.0,0.0,0.0,0.0,0.0,0.0,0.0,0.0,0.0,0.06997542828321457,-0.02713356725871563,-0.20262524485588074,0.0,0.0,0.0,0.0,0.0,0.0,0.0,0.0,0.0,0.6910256743431091,0.32487180829048157,10.137436866760254,0.0,0.0,0.0,0.0,0.0,0.0,0.0,0.0,0.0
1646244334.570994,6794,1646244334,570581168,,0.0,0.0,0.0,0.0,0.0,0.0,0.0,0.0,0.0,0.0,0.0,0.0,0.0,0.038017503917217255,-0.03245988488197327,-0.152557834982872,0.0,0.0,0.0,0.0,0.0,0.0,0.0,0.0,0.0,0.3392307758331299,0.7592307925224304,10.832051277160645,0.0,0.0,0.0,0.0,0.0,0.0,0.0,0.0,0.0
1646244334.573248,6795,1646244334,572819635,,0.0,0.0,0.0,0.0,0.0,0.0,0.0,0.0,0.0,0.0,0.0,0.0,0.0,0.014581688679754734,-0.036720942705869675,-0.07692406326532364,0.0,0.0,0.0,0.0,0.0,0.0,0.0,0.0,0.0,0.21358974277973175,1.0212820768356323,9.948974609375,0.0,0.0,0.0,0.0,0.0,0.0,0.0,0.0,0.0
1646244334.5754304,6796,1646244334,575064095,,0.0,0.0,0.0,0.0,0.0,0.0,0.0,0.0,0.0,0.0,0.0,0.0,0.0,-0.020572034642100334,-0.02393777295947075,-0.05881455913186073,0.0,0.0,0.0,0.0,0.0,0.0,0.0,0.0,0.0,0.10051282495260239,0.38948720693588257,10.270256042480469,0.0,0.0,0.0,0.0,0.0,0.0,0.0,0.0,0.0
1646244334.5780447,6797,1646244334,577315785,,0.0,0.0,0.0,0.0,0.0,0.0,0.0,0.0,0.0,0.0,0.0,0.0,0.0,0.012451158836483955,-0.013285127468407154,-0.017269250005483627,0.0,0.0,0.0,0.0,0.0,0.0,0.0,0.0,0.0,-0.1328205168247223,1.0212820768356323,10.582564353942871,0.0,0.0,0.0,0.0,0.0,0.0,0.0,0.0,0.0
1646244334.5798907,6798,1646244334,579628115,,0.0,0.0,0.0,0.0,0.0,0.0,0.0,0.0,0.0,0.0,0.0,0.0,0.0,-0.026963621377944946,-0.01115459855645895,0.025341326370835304,0.0,0.0,0.0,0.0,0.0,0.0,0.0,0.0,0.0,0.43435898423194885,0.31948718428611755,9.834102630615234,0.0,0.0,0.0,0.0,0.0,0.0,0.0,0.0,0.0
1646244334.58209,6799,1646244334,581851501,,0.0,0.0,0.0,0.0,0.0,0.0,0.0,0.0,0.0,0.0,0.0,0.0,0.0,-0.06105208024382591,-0.021807242184877396,0.08712666481733322,0.0,0.0,0.0,0.0,0.0,0.0,0.0,0.0,0.0,-0.12205128371715546,0.6820513010025024,9.866410255432129,0.0,0.0,0.0,0.0,0.0,0.0,0.0,0.0,0.0
1646244334.5845816,6800,1646244334,584139259,,0.0,0.0,0.0,0.0,0.0,0.0,0.0,0.0,0.0,0.0,0.0,0.0,0.0,-0.028028886765241623,-0.006893542595207691,0.1116277351975441,0.0,0.0,0.0,0.0,0.0,0.0,0.0,0.0,0.0,0.26384615898132324,0.6030769348144531,9.532564163208008,0.0,0.0,0.0,0.0,0.0,0.0,0.0,0.0,0.0
1646244334.586841,6801,1646244334,586396486,,0.0,0.0,0.0,0.0,0.0,0.0,0.0,0.0,0.0,0.0,0.0,0.0,0.0,-0.0429425872862339,0.010150688700377941,0.17873939871788025,0.0,0.0,0.0,0.0,0.0,0.0,0.0,0.0,0.0,0.26384615898132324,0.16333334147930145,9.275897026062012,0.0,0.0,0.0,0.0,0.0,0.0,0.0,0.0,0.0
1646244334.5893106,6802,1646244334,588844263,,0.0,0.0,0.0,0.0,0.0,0.0,0.0,0.0,0.0,0.0,0.0,0.0,0.0,-0.04613837972283363,0.00588963134214282,0.20750153064727783,0.0,0.0,0.0,0.0,0.0,0.0,0.0,0.0,0.0,0.18128205835819244,0.8112820982933044,9.324358940124512,0.0,0.0,0.0,0.0,0.0,0.0,0.0,0.0,0.0
1646244334.5913558,6803,1646244334,591046553,,0.0,0.0,0.0,0.0,0.0,0.0,0.0,0.0,0.0,0.0,0.0,0.0,0.0,-0.0663784071803093,0.020803332328796387,0.22561101615428925,0.0,0.0,0.0,0.0,0.0,0.0,0.0,0.0,0.0,0.12205128371715546,0.4828205108642578,9.385384559631348,0.0,0.0,0.0,0.0,0.0,0.0,0.0,0.0,0.0
1646244334.594798,6804,1646244334,593195060,,0.0,0.0,0.0,0.0,0.0,0.0,0.0,0.0,0.0,0.0,0.0,0.0,0.0,-0.05039943754673004,0.031455978751182556,0.254373162984848,0.0,0.0,0.0,0.0,0.0,0.0,0.0,0.0,0.0,-0.19025641679763794,1.190000057220459,10.105128288269043,0.0,0.0,0.0,0.0,0.0,0.0,0.0,0.0,0.0
1646244334.5957208,6805,1646244334,595446054,,0.0,0.0,0.0,0.0,0.0,0.0,0.0,0.0,0.0,0.0,0.0,0.0,0.0,-0.049334172159433365,0.04423915222287178,0.31722375750541687,0.0,0.0,0.0,0.0,0.0,0.0,0.0,0.0,0.0,0.26923078298568726,0.4146153926849365,8.949230194091797,0.0,0.0,0.0,0.0,0.0,0.0,0.0,0.0,0.0
1646244334.5980346,6806,1646244334,597688904,,0.0,0.0,0.0,0.0,0.0,0.0,0.0,0.0,0.0,0.0,0.0,0.0,0.0,-0.03228994458913803,0.0527612641453743,0.35024696588516235,0.0,0.0,0.0,0.0,0.0,0.0,0.0,0.0,0.0,-0.3087179660797119,0.4738461673259735,9.91128158569336,0.0,0.0,0.0,0.0,0.0,0.0,0.0,0.0,0.0
1646244334.6003306,6807,1646244334,599974116,,0.0,0.0,0.0,0.0,0.0,0.0,0.0,0.0,0.0,0.0,0.0,0.0,0.0,-0.03868153318762779,0.025064390152692795,0.38220489025115967,0.0,0.0,0.0,0.0,0.0,0.0,0.0,0.0,0.0,0.18128205835819244,0.4810256361961365,9.783845901489258,0.0,0.0,0.0,0.0,0.0,0.0,0.0,0.0,0.0
1646244334.6026487,6808,1646244334,602190368,,0.0,0.0,0.0,0.0,0.0,0.0,0.0,0.0,0.0,0.0,0.0,0.0,0.0,-0.04613837972283363,0.02612965553998947,0.3854006826877594,0.0,0.0,0.0,0.0,0.0,0.0,0.0,0.0,0.0,-0.07897436618804932,0.4738461673259735,9.963333129882812,0.0,0.0,0.0,0.0,0.0,0.0,0.0,0.0,0.0
1646244334.6048038,6809,1646244334,604431710,,0.0,0.0,0.0,0.0,0.0,0.0,0.0,0.0,0.0,0.0,0.0,0.0,0.0,-0.04826890677213669,0.038912829011678696,0.43333759903907776,0.0,0.0,0.0,0.0,0.0,0.0,0.0,0.0,0.0,-0.025128206238150597,0.6174359321594238,10.10153865814209,0.0,0.0,0.0,0.0,0.0,0.0,0.0,0.0,0.0
1646244334.6069896,6810,1646244334,606627306,,0.0,0.0,0.0,0.0,0.0,0.0,0.0,0.0,0.0,0.0,0.0,0.0,0.0,-0.06105208024382591,0.05702231824398041,0.45251235365867615,0.0,0.0,0.0,0.0,0.0,0.0,0.0,0.0,0.0,-0.45769232511520386,0.6641026139259338,10.162564277648926,0.0,0.0,0.0,0.0,0.0,0.0,0.0,0.0,0.0
1646244334.6093595,6811,1646244334,608887303,,0.0,0.0,0.0,0.0,0.0,0.0,0.0,0.0,0.0,0.0,0.0,0.0,0.0,-0.059986818581819534,0.031455978751182556,0.45783868432044983,0.0,0.0,0.0,0.0,0.0,0.0,0.0,0.0,0.0,-0.22435897588729858,0.11128205060958862,9.60615348815918,0.0,0.0,0.0,0.0,0.0,0.0,0.0,0.0,0.0
1646244334.6114697,6812,1646244334,611105392,,0.0,0.0,0.0,0.0,0.0,0.0,0.0,0.0,0.0,0.0,0.0,0.0,0.0,-0.06850893795490265,0.025064390152692795,0.4684913158416748,0.0,0.0,0.0,0.0,0.0,0.0,0.0,0.0,0.0,-0.06102564185857773,0.2566666603088379,9.340513229370117,0.0,0.0,0.0,0.0,0.0,0.0,0.0,0.0,0.0
1646244334.613598,6813,1646244334,613323710,,0.0,0.0,0.0,0.0,0.0,0.0,0.0,0.0,0.0,0.0,0.0,0.0,0.0,-0.05892155319452286,0.03465176746249199,0.49938398599624634,0.0,0.0,0.0,0.0,0.0,0.0,0.0,0.0,0.0,0.22615385055541992,-0.1651282161474228,9.376410484313965,0.0,0.0,0.0,0.0,0.0,0.0,0.0,0.0,0.0
1646244334.615908,6814,1646244334,615547566,,0.0,0.0,0.0,0.0,0.0,0.0,0.0,0.0,0.0,0.0,0.0,0.0,0.0,-0.0940752774477005,0.017607539892196655,0.5057755708694458,0.0,0.0,0.0,0.0,0.0,0.0,0.0,0.0,0.0,-0.2476923167705536,0.4092307686805725,9.638461112976074,0.0,0.0,0.0,0.0,0.0,0.0,0.0,0.0,0.0
1646244334.6182618,6815,1646244334,617811320,,0.0,0.0,0.0,0.0,0.0,0.0,0.0,0.0,0.0,0.0,0.0,0.0,0.0,-0.07916158437728882,0.021868597716093063,0.5206892490386963,0.0,0.0,0.0,0.0,0.0,0.0,0.0,0.0,0.0,-0.22256410121917725,0.19384616613388062,9.821538925170898,0.0,0.0,0.0,0.0,0.0,0.0,0.0,0.0,0.0
1646244334.6204338,6816,1646244334,620054258,,0.0,0.0,0.0,0.0,0.0,0.0,0.0,0.0,0.0,0.0,0.0,0.0,0.0,-0.12603320181369781,0.02612965553998947,0.5302766561508179,0.0,0.0,0.0,0.0,0.0,0.0,0.0,0.0,0.0,-0.4720512926578522,0.7735897898674011,10.232563972473145,0.0,0.0,0.0,0.0,0.0,0.0,0.0,0.0,0.0
1646244334.6226687,6817,1646244334,622279947,,0.0,0.0,0.0,0.0,0.0,0.0,0.0,0.0,0.0,0.0,0.0,0.0,0.0,-0.12390267848968506,0.03358650580048561,0.5728872418403625,0.0,0.0,0.0,0.0,0.0,0.0,0.0,0.0,0.0,-0.07538461685180664,0.10051282495260239,10.038718223571777,0.0,0.0,0.0,0.0,0.0,0.0,0.0,0.0,0.0
1646244334.6248472,6818,1646244334,624498216,,0.0,0.0,0.0,0.0,0.0,0.0,0.0,0.0,0.0,0.0,0.0,0.0,0.0,-0.12070688605308533,0.00588963134214282,0.5622345805168152,0.0,0.0,0.0,0.0,0.0,0.0,0.0,0.0,0.0,-0.20102564990520477,0.38948720693588257,9.537948608398438,0.0,0.0,0.0,0.0,0.0,0.0,0.0,0.0,0.0
1646244334.6270287,6819,1646244334,626698794,,0.0,0.0,0.0,0.0,0.0,0.0,0.0,0.0,0.0,0.0,0.0,0.0,0.0,-0.13455532491207123,0.018672803416848183,0.5569082498550415,0.0,0.0,0.0,0.0,0.0,0.0,0.0,0.0,0.0,-0.3266666829586029,0.16333334147930145,9.798205375671387,0.0,0.0,0.0,0.0,0.0,0.0,0.0,0.0,0.0
1646244334.6292355,6820,1646244334,628902230,,0.0,0.0,0.0,0.0,0.0,0.0,0.0,0.0,0.0,0.0,0.0,0.0,0.0,-0.1356205940246582,0.010150688700377941,0.5686261653900146,0.0,0.0,0.0,0.0,0.0,0.0,0.0,0.0,0.0,-0.19923077523708344,-0.17769230902194977,9.449999809265137,0.0,0.0,0.0,0.0,0.0,0.0,0.0,0.0,0.0
1646244334.6315155,6821,1646244334,631116040,,0.0,0.0,0.0,0.0,0.0,0.0,0.0,0.0,0.0,0.0,0.0,0.0,0.0,-0.14627324044704437,0.017607539892196655,0.5707566738128662,0.0,0.0,0.0,0.0,0.0,0.0,0.0,0.0,0.0,-0.49897435307502747,0.15256410837173462,10.544872283935547,0.0,0.0,0.0,0.0,0.0,0.0,0.0,0.0,0.0
1646244334.6338897,6822,1646244334,633341341,,0.0,0.0,0.0,0.0,0.0,0.0,0.0,0.0,0.0,0.0,0.0,0.0,0.0,-0.16651326417922974,0.004824366886168718,0.5931272506713867,0.0,0.0,0.0,0.0,0.0,0.0,0.0,0.0,0.0,-0.4271794855594635,0.15435898303985596,9.792820930480957,0.0,0.0,0.0,0.0,0.0,0.0,0.0,0.0,0.0
1646244334.6374292,6823,1646244334,635619411,,0.0,0.0,0.0,0.0,0.0,0.0,0.0,0.0,0.0,0.0,0.0,0.0,0.0,-0.1452079713344574,0.0005633095279335976,0.5718219876289368,0.0,0.0,0.0,0.0,0.0,0.0,0.0,0.0,0.0,0.07717949151992798,0.001794871874153614,9.59000015258789,0.0,0.0,0.0,0.0,0.0,0.0,0.0,0.0,0.0
1646244334.6381536,6824,1646244334,637826159,,0.0,0.0,0.0,0.0,0.0,0.0,0.0,0.0,0.0,0.0,0.0,0.0,0.0,-0.14627324044704437,0.006954895332455635,0.541994571685791,0.0,0.0,0.0,0.0,0.0,0.0,0.0,0.0,0.0,-0.2710256576538086,-0.05743589997291565,9.214871406555176,0.0,0.0,0.0,0.0,0.0,0.0,0.0,0.0,0.0
1646244334.6404624,6825,1646244334,640086160,,0.0,0.0,0.0,0.0,0.0,0.0,0.0,0.0,0.0,0.0,0.0,0.0,0.0,-0.16118694841861725,-0.0026324838399887085,0.5483861565589905,0.0,0.0,0.0,0.0,0.0,0.0,0.0,0.0,0.0,0.18487180769443512,-0.4684615433216095,10.679487228393555,0.0,0.0,0.0,0.0,0.0,0.0,0.0,0.0,0.0
1646244334.6427581,6826,1646244334,642287316,,0.0,0.0,0.0,0.0,0.0,0.0,0.0,0.0,0.0,0.0,0.0,0.0,0.0,-0.13455532491207123,-0.0026324838399887085,0.5366682410240173,0.0,0.0,0.0,0.0,0.0,0.0,0.0,0.0,0.0,0.09692308306694031,-0.3087179660797119,9.410512924194336,0.0,0.0,0.0,0.0,0.0,0.0,0.0,0.0,0.0
1646244334.6448805,6827,1646244334,644595151,,0.0,0.0,0.0,0.0,0.0,0.0,0.0,0.0,0.0,0.0,0.0,0.0,0.0,-0.1175110936164856,-0.005828278139233589,0.5111019015312195,0.0,0.0,0.0,0.0,0.0,0.0,0.0,0.0,0.0,-0.6838461756706238,0.2297435998916626,9.45358943939209,0.0,0.0,0.0,0.0,0.0,0.0,0.0,0.0,0.0
1646244334.647216,6828,1646244334,646841786,,0.0,0.0,0.0,0.0,0.0,0.0,0.0,0.0,0.0,0.0,0.0,0.0,0.0,-0.10898897796869278,-0.03245988488197327,0.4951229393482208,0.0,0.0,0.0,0.0,0.0,0.0,0.0,0.0,0.0,-0.14897435903549194,-0.05384615436196327,10.600512504577637,0.0,0.0,0.0,0.0,0.0,0.0,0.0,0.0,0.0
1646244334.6494489,6829,1646244334,649126427,,0.0,0.0,0.0,0.0,0.0,0.0,0.0,0.0,0.0,0.0,0.0,0.0,0.0,-0.11325003206729889,-0.029264096170663834,0.5057755708694458,0.0,0.0,0.0,0.0,0.0,0.0,0.0,0.0,0.0,-0.18307693302631378,-0.3679487407207489,10.474871635437012,0.0,0.0,0.0,0.0,0.0,0.0,0.0,0.0,0.0
1646244334.6518583,6830,1646244334,651439504,,0.0,0.0,0.0,0.0,0.0,0.0,0.0,0.0,0.0,0.0,0.0,0.0,0.0,-0.1217721477150917,-0.021807242184877396,0.4280112683773041,0.0,0.0,0.0,0.0,0.0,0.0,0.0,0.0,0.0,-0.05205128341913223,-0.3123077154159546,9.837692260742188,0.0,0.0,0.0,0.0,0.0,0.0,0.0,0.0,0.0
1646244334.6541836,6831,1646244334,653750423,,0.0,0.0,0.0,0.0,0.0,0.0,0.0,0.0,0.0,0.0,0.0,0.0,0.0,-0.08555316179990768,-0.04524305835366249,0.44825127720832825,0.0,0.0,0.0,0.0,0.0,0.0,0.0,0.0,0.0,-0.07179487496614456,-0.6228205561637878,10.04230785369873,0.0,0.0,0.0,0.0,0.0,0.0,0.0,0.0,0.0
1646244334.6564834,6832,1646244334,655998733,,0.0,0.0,0.0,0.0,0.0,0.0,0.0,0.0,0.0,0.0,0.0,0.0,0.0,-0.09833633154630661,-0.051634643226861954,0.38220489025115967,0.0,0.0,0.0,0.0,0.0,0.0,0.0,0.0,0.0,-0.044871795922517776,-0.5366666913032532,9.428462028503418,0.0,0.0,0.0,0.0,0.0,0.0,0.0,0.0,0.0
1646244334.658667,6833,1646244334,658206620,,0.0,0.0,0.0,0.0,0.0,0.0,0.0,0.0,0.0,0.0,0.0,0.0,0.0,-0.05892155319452286,-0.058026235550642014,0.34492063522338867,0.0,0.0,0.0,0.0,0.0,0.0,0.0,0.0,0.0,0.11128205060958862,-0.5546153783798218,9.516409873962402,0.0,0.0,0.0,0.0,0.0,0.0,0.0,0.0,0.0
1646244334.6608157,6834,1646244334,660418986,,0.0,0.0,0.0,0.0,0.0,0.0,0.0,0.0,0.0,0.0,0.0,0.0,0.0,-0.05785628780722618,-0.0633525550365448,0.3438553810119629,0.0,0.0,0.0,0.0,0.0,0.0,0.0,0.0,0.0,-0.2746153771877289,-0.5151281952857971,9.451794624328613,0.0,0.0,0.0,0.0,0.0,0.0,0.0,0.0,0.0
1646244334.6630735,6835,1646244334,662624217,,0.0,0.0,0.0,0.0,0.0,0.0,0.0,0.0,0.0,0.0,0.0,0.0,0.0,-0.04507311433553696,-0.07507046312093735,0.2927226722240448,0.0,0.0,0.0,0.0,0.0,0.0,0.0,0.0,0.0,-0.31051284074783325,-0.4594871997833252,9.778461456298828,0.0,0.0,0.0,0.0,0.0,0.0,0.0,0.0,0.0
1646244334.6661463,6836,1646244334,664846625,,0.0,0.0,0.0,0.0,0.0,0.0,0.0,0.0,0.0,0.0,0.0,0.0,0.0,-0.06318260729312897,-0.09637574851512909,0.254373162984848,0.0,0.0,0.0,0.0,0.0,0.0,0.0,0.0,0.0,0.026923077180981636,-0.8615384697914124,9.105384826660156,0.0,0.0,0.0,0.0,0.0,0.0,0.0,0.0,0.0
1646244334.667475,6837,1646244334,667079979,,0.0,0.0,0.0,0.0,0.0,0.0,0.0,0.0,0.0,0.0,0.0,0.0,0.0,-0.012049921788275242,-0.07293993979692459,0.20217519998550415,0.0,0.0,0.0,0.0,0.0,0.0,0.0,0.0,0.0,-0.06820512562990189,-0.46128207445144653,9.518204689025879,0.0,0.0,0.0,0.0,0.0,0.0,0.0,0.0,0.0
1646244334.669704,6838,1646244334,669297653,,0.0,0.0,0.0,0.0,0.0,0.0,0.0,0.0,0.0,0.0,0.0,0.0,0.0,-0.01098465733230114,-0.09637574851512909,0.1531730592250824,0.0,0.0,0.0,0.0,0.0,0.0,0.0,0.0,0.0,-0.02153846248984337,-0.8094872236251831,9.365640640258789,0.0,0.0,0.0,0.0,0.0,0.0,0.0,0.0,0.0
1646244334.67186,6839,1646244334,671499994,,0.0,0.0,0.0,0.0,0.0,0.0,0.0,0.0,0.0,0.0,0.0,0.0,0.0,-0.016310978680849075,-0.06867887824773788,0.1393246054649353,0.0,0.0,0.0,0.0,0.0,0.0,0.0,0.0,0.0,-0.4505128264427185,-0.31051284074783325,10.002820014953613,0.0,0.0,0.0,0.0,0.0,0.0,0.0,0.0,0.0
1646244334.674108,6840,1646244334,673739009,,0.0,0.0,0.0,0.0,0.0,0.0,0.0,0.0,0.0,0.0,0.0,0.0,0.0,-0.008854128420352936,-0.06867887824773788,0.07114769518375397,0.0,0.0,0.0,0.0,0.0,0.0,0.0,0.0,0.0,-0.6856410503387451,-0.10410256683826447,9.834102630615234,0.0,0.0,0.0,0.0,0.0,0.0,0.0,0.0,0.0
1646244334.6761918,6841,1646244334,675975300,,0.0,0.0,0.0,0.0,0.0,0.0,0.0,0.0,0.0,0.0,0.0,0.0,0.0,-0.004593071062117815,-0.0772009864449501,0.024276060983538628,0.0,0.0,0.0,0.0,0.0,0.0,0.0,0.0,0.0,-0.4217948913574219,-0.7951282262802124,9.473333358764648,0.0,0.0,0.0,0.0,0.0,0.0,0.0,0.0,0.0
1646244334.680104,6842,1646244334,678191647,,0.0,0.0,0.0,0.0,0.0,0.0,0.0,0.0,0.0,0.0,0.0,0.0,0.0,0.02523433417081833,-0.06228729337453842,-0.011942928656935692,0.0,0.0,0.0,0.0,0.0,0.0,0.0,0.0,0.0,-0.5707692503929138,-0.5276923179626465,9.828718185424805,0.0,0.0,0.0,0.0,0.0,0.0,0.0,0.0,0.0
1646244334.6809921,6843,1646244334,680431290,,0.0,0.0,0.0,0.0,0.0,0.0,0.0,0.0,0.0,0.0,0.0,0.0,0.0,0.00925536546856165,-0.029264096170663834,-0.03750927746295929,0.0,0.0,0.0,0.0,0.0,0.0,0.0,0.0,0.0,-0.2566666603088379,-1.0894871950149536,9.268717765808105,0.0,0.0,0.0,0.0,0.0,0.0,0.0,0.0,0.0
1646244334.6830094,6844,1646244334,682662108,,0.0,0.0,0.0,0.0,0.0,0.0,0.0,0.0,0.0,0.0,0.0,0.0,0.0,0.011385894380509853,-0.03139462321996689,-0.11314304172992706,0.0,0.0,0.0,0.0,0.0,0.0,0.0,0.0,0.0,-0.2674359083175659,-0.18307693302631378,9.380000114440918,0.0,0.0,0.0,0.0,0.0,0.0,0.0,0.0,0.0
1646244334.685342,6845,1646244334,684865436,,0.0,0.0,0.0,0.0,0.0,0.0,0.0,0.0,0.0,0.0,0.0,0.0,0.0,0.015646953135728836,-0.026068301871418953,-0.1482967734336853,0.0,0.0,0.0,0.0,0.0,0.0,0.0,0.0,0.0,-0.16692309081554413,-0.6641026139259338,9.293846130371094,0.0,0.0,0.0,0.0,0.0,0.0,0.0,0.0,0.0
1646244334.6876082,6846,1646244334,687093198,,0.0,0.0,0.0,0.0,0.0,0.0,0.0,0.0,0.0,0.0,0.0,0.0,0.0,0.03162591904401779,-0.018611449748277664,-0.16960206627845764,0.0,0.0,0.0,0.0,0.0,0.0,0.0,0.0,0.0,-0.36076924204826355,-0.13461539149284363,9.60615348815918,0.0,0.0,0.0,0.0,0.0,0.0,0.0,0.0,0.0
1646244334.689777,6847,1646244334,689332004,,0.0,0.0,0.0,0.0,0.0,0.0,0.0,0.0,0.0,0.0,0.0,0.0,0.0,0.001798515673726797,-0.0036977482959628105,-0.23032212257385254,0.0,0.0,0.0,0.0,0.0,0.0,0.0,0.0,0.0,-0.2746153771877289,-0.6317949295043945,8.925897598266602,0.0,0.0,0.0,0.0,0.0,0.0,0.0,0.0,0.0
1646244334.6919763,6848,1646244334,691546955,,0.0,0.0,0.0,0.0,0.0,0.0,0.0,0.0,0.0,0.0,0.0,0.0,0.0,0.02843012474477291,0.031455978751182556,-0.24949687719345093,0.0,0.0,0.0,0.0,0.0,0.0,0.0,0.0,0.0,-0.22615385055541992,-0.37512820959091187,9.236410140991211,0.0,0.0,0.0,0.0,0.0,0.0,0.0,0.0,0.0
1646244334.6941977,6849,1646244334,693790807,,0.0,0.0,0.0,0.0,0.0,0.0,0.0,0.0,0.0,0.0,0.0,0.0,0.0,0.018842745572328568,0.006954895332455635,-0.28038957715034485,0.0,0.0,0.0,0.0,0.0,0.0,0.0,0.0,0.0,0.28358975052833557,-0.5958974361419678,9.204102516174316,0.0,0.0,0.0,0.0,0.0,0.0,0.0,0.0,0.0
1646244334.6965053,6850,1646244334,696044488,,0.0,0.0,0.0,0.0,0.0,0.0,0.0,0.0,0.0,0.0,0.0,0.0,0.0,0.016712216660380363,0.035717036575078964,-0.2825201153755188,0.0,0.0,0.0,0.0,0.0,0.0,0.0,0.0,0.0,0.10410256683826447,-0.2530769407749176,9.347692489624023,0.0,0.0,0.0,0.0,0.0,0.0,0.0,0.0,0.0
1646244334.698762,6851,1646244334,698297053,,0.0,0.0,0.0,0.0,0.0,0.0,0.0,0.0,0.0,0.0,0.0,0.0,0.0,0.03162591904401779,0.03465176746249199,-0.34537065029144287,0.0,0.0,0.0,0.0,0.0,0.0,0.0,0.0,0.0,0.014358974993228912,-0.33384618163108826,9.848461151123047,0.0,0.0,0.0,0.0,0.0,0.0,0.0,0.0,0.0
1646244334.701085,6852,1646244334,700582837,,0.0,0.0,0.0,0.0,0.0,0.0,0.0,0.0,0.0,0.0,0.0,0.0,0.0,0.02097327448427677,0.05169600248336792,-0.3475011885166168,0.0,0.0,0.0,0.0,0.0,0.0,0.0,0.0,0.0,0.05564102530479431,-0.2566666603088379,9.430255889892578,0.0,0.0,0.0,0.0,0.0,0.0,0.0,0.0,0.0
1646244334.703166,6853,1646244334,702810897,,0.0,0.0,0.0,0.0,0.0,0.0,0.0,0.0,0.0,0.0,0.0,0.0,0.0,0.04334382712841034,0.058087583631277084,-0.37839385867118835,0.0,0.0,0.0,0.0,0.0,0.0,0.0,0.0,0.0,0.06461538374423981,-0.4451282024383545,9.597179412841797,0.0,0.0,0.0,0.0,0.0,0.0,0.0,0.0,0.0
1646244334.7053614,6854,1646244334,705079381,,0.0,0.0,0.0,0.0,0.0,0.0,0.0,0.0,0.0,0.0,0.0,0.0,0.0,0.041213300079107285,0.05063073709607124,-0.41035178303718567,0.0,0.0,0.0,0.0,0.0,0.0,0.0,0.0,0.0,0.10051282495260239,-0.5923076868057251,9.171794891357422,0.0,0.0,0.0,0.0,0.0,0.0,0.0,0.0,0.0
1646244334.707594,6855,1646244334,707340384,,0.0,0.0,0.0,0.0,0.0,0.0,0.0,0.0,0.0,0.0,0.0,0.0,0.0,0.05825752764940262,0.05915284901857376,-0.43378758430480957,0.0,0.0,0.0,0.0,0.0,0.0,0.0,0.0,0.0,0.1705128252506256,-0.40205129981040955,9.252564430236816,0.0,0.0,0.0,0.0,0.0,0.0,0.0,0.0,0.0
1646244334.7099886,6856,1646244334,709582717,,0.0,0.0,0.0,0.0,0.0,0.0,0.0,0.0,0.0,0.0,0.0,0.0,0.0,0.059322793036699295,0.046369679272174835,-0.4732023775577545,0.0,0.0,0.0,0.0,0.0,0.0,0.0,0.0,0.0,0.15794873237609863,-0.46666666865348816,9.232820510864258,0.0,0.0,0.0,0.0,0.0,0.0,0.0,0.0,0.0
1646244334.7123582,6857,1646244334,711854235,,0.0,0.0,0.0,0.0,0.0,0.0,0.0,0.0,0.0,0.0,0.0,0.0,0.0,0.08062808215618134,0.03997809439897537,-0.44870129227638245,0.0,0.0,0.0,0.0,0.0,0.0,0.0,0.0,0.0,0.18666666746139526,-0.5994871854782104,9.401537895202637,0.0,0.0,0.0,0.0,0.0,0.0,0.0,0.0,0.0
1646244334.7156577,6858,1646244334,714134636,,0.0,0.0,0.0,0.0,0.0,0.0,0.0,0.0,0.0,0.0,0.0,0.0,0.0,0.06784490495920181,0.04530441388487816,-0.5179435014724731,0.0,0.0,0.0,0.0,0.0,0.0,0.0,0.0,0.0,0.19025641679763794,-0.43435898423194885,9.873589515686035,0.0,0.0,0.0,0.0,0.0,0.0,0.0,0.0,0.0
1646244334.716719,6859,1646244334,716359361,,0.0,0.0,0.0,0.0,0.0,0.0,0.0,0.0,0.0,0.0,0.0,0.0,0.0,0.0635838508605957,0.04423915222287178,-0.5115519165992737,0.0,0.0,0.0,0.0,0.0,0.0,0.0,0.0,0.0,-0.1561538577079773,-0.28179487586021423,9.808974266052246,0.0,0.0,0.0,0.0,0.0,0.0,0.0,0.0,0.0
1646244334.7197378,6860,1646244334,719409791,,0.0,0.0,0.0,0.0,0.0,0.0,0.0,0.0,0.0,0.0,0.0,0.0,0.0,0.09554177522659302,0.05702231824398041,-0.5094213485717773,0.0,0.0,0.0,0.0,0.0,0.0,0.0,0.0,0.0,-0.2710256576538086,-0.37871795892715454,9.563076972961426,0.0,0.0,0.0,0.0,0.0,0.0,0.0,0.0,0.0
1646244334.7233567,6861,1646244334,721656412,,0.0,0.0,0.0,0.0,0.0,0.0,0.0,0.0,0.0,0.0,0.0,0.0,0.0,0.08488914370536804,0.06021811440587044,-0.5499014258384705,0.0,0.0,0.0,0.0,0.0,0.0,0.0,0.0,0.0,-0.09692308306694031,-0.06641025841236115,9.90410327911377,0.0,0.0,0.0,0.0,0.0,0.0,0.0,0.0,0.0
1646244334.7243237,6862,1646244334,723884945,,0.0,0.0,0.0,0.0,0.0,0.0,0.0,0.0,0.0,0.0,0.0,0.0,0.0,0.07423648983240128,0.05489179491996765,-0.5392487645149231,0.0,0.0,0.0,0.0,0.0,0.0,0.0,0.0,0.0,0.016153845936059952,-0.2997435927391052,9.724615097045898,0.0,0.0,0.0,0.0,0.0,0.0,0.0,0.0,0.0
1646244334.7266068,6863,1646244334,726123278,,0.0,0.0,0.0,0.0,0.0,0.0,0.0,0.0,0.0,0.0,0.0,0.0,0.0,0.0774322897195816,0.04530441388487816,-0.5424445867538452,0.0,0.0,0.0,0.0,0.0,0.0,0.0,0.0,0.0,0.3212820589542389,-0.13461539149284363,9.778461456298828,0.0,0.0,0.0,0.0,0.0,0.0,0.0,0.0,0.0
1646244334.7286186,6864,1646244334,728322149,,0.0,0.0,0.0,0.0,0.0,0.0,0.0,0.0,0.0,0.0,0.0,0.0,0.0,0.09341125190258026,0.04530441388487816,-0.5584235787391663,0.0,0.0,0.0,0.0,0.0,0.0,0.0,0.0,0.0,0.1471794843673706,-0.1794871836900711,9.4858980178833,0.0,0.0,0.0,0.0,0.0,0.0,0.0,0.0,0.0
1646244334.7310731,6865,1646244334,730727279,,0.0,0.0,0.0,0.0,0.0,0.0,0.0,0.0,0.0,0.0,0.0,0.0,0.0,0.10939021408557892,0.0527612641453743,-0.5541625618934631,0.0,0.0,0.0,0.0,0.0,0.0,0.0,0.0,0.0,-0.14000000059604645,0.42000001668930054,9.89871883392334,0.0,0.0,0.0,0.0,0.0,0.0,0.0,0.0,0.0
1646244334.7337341,6866,1646244334,733103127,,0.0,0.0,0.0,0.0,0.0,0.0,0.0,0.0,0.0,0.0,0.0,0.0,0.0,0.0870196744799614,0.03997809439897537,-0.6031647324562073,0.0,0.0,0.0,0.0,0.0,0.0,0.0,0.0,0.0,-0.18307693302631378,-0.06820512562990189,10.083589553833008,0.0,0.0,0.0,0.0,0.0,0.0,0.0,0.0,0.0
1646244334.7358959,6867,1646244334,735349150,,0.0,0.0,0.0,0.0,0.0,0.0,0.0,0.0,0.0,0.0,0.0,0.0,0.0,0.09873756766319275,0.03678229823708534,-0.5573583245277405,0.0,0.0,0.0,0.0,0.0,0.0,0.0,0.0,0.0,0.3033333420753479,-0.19923077523708344,10.05128288269043,0.0,0.0,0.0,0.0,0.0,0.0,0.0,0.0,0.0
1646244334.737985,6868,1646244334,737566727,,0.0,0.0,0.0,0.0,0.0,0.0,0.0,0.0,0.0,0.0,0.0,0.0,0.0,0.12536917626857758,0.0026938372757285833,-0.5573583245277405,0.0,0.0,0.0,0.0,0.0,0.0,0.0,0.0,0.0,0.5815384387969971,0.11846154183149338,9.769487380981445,0.0,0.0,0.0,0.0,0.0,0.0,0.0,0.0,0.0
1646244334.7403576,6869,1646244334,739844452,,0.0,0.0,0.0,0.0,0.0,0.0,0.0,0.0,0.0,0.0,0.0,0.0,0.0,0.11791232973337173,0.03358650580048561,-0.5467056035995483,0.0,0.0,0.0,0.0,0.0,0.0,0.0,0.0,0.0,0.3500000238418579,0.4217948913574219,10.10333251953125,0.0,0.0,0.0,0.0,0.0,0.0,0.0,0.0,0.0
1646244334.742586,6870,1646244334,742110424,,0.0,0.0,0.0,0.0,0.0,0.0,0.0,0.0,0.0,0.0,0.0,0.0,0.0,0.12323865294456482,0.01654227450489998,-0.5413793325424194,0.0,0.0,0.0,0.0,0.0,0.0,0.0,0.0,0.0,0.13102564215660095,0.41102564334869385,10.040512084960938,0.0,0.0,0.0,0.0,0.0,0.0,0.0,0.0,0.0
1646244334.7447858,6871,1646244334,744319276,,0.0,0.0,0.0,0.0,0.0,0.0,0.0,0.0,0.0,0.0,0.0,0.0,0.0,0.133891299366951,-0.0047630127519369125,-0.5083560943603516,0.0,0.0,0.0,0.0,0.0,0.0,0.0,0.0,0.0,0.12743589282035828,-0.14179487526416779,9.862820625305176,0.0,0.0,0.0,0.0,0.0,0.0,0.0,0.0,0.0
1646244334.7469697,6872,1646244334,746538068,,0.0,0.0,0.0,0.0,0.0,0.0,0.0,0.0,0.0,0.0,0.0,0.0,0.0,0.12963023781776428,-0.005828278139233589,-0.5317919254302979,0.0,0.0,0.0,0.0,0.0,0.0,0.0,0.0,0.0,-0.03948718309402466,0.49000000953674316,10.307948112487793,0.0,0.0,0.0,0.0,0.0,0.0,0.0,0.0,0.0
1646244334.749253,6873,1646244334,748790521,,0.0,0.0,0.0,0.0,0.0,0.0,0.0,0.0,0.0,0.0,0.0,0.0,0.0,0.14454393088817596,-0.01967671327292919,-0.5030297636985779,0.0,0.0,0.0,0.0,0.0,0.0,0.0,0.0,0.0,0.3069230914115906,0.5635897517204285,10.797948837280273,0.0,0.0,0.0,0.0,0.0,0.0,0.0,0.0,0.0
1646244334.7517211,6874,1646244334,751030123,,0.0,0.0,0.0,0.0,0.0,0.0,0.0,0.0,0.0,0.0,0.0,0.0,0.0,0.13708709180355072,0.009085424244403839,-0.431657075881958,0.0,0.0,0.0,0.0,0.0,0.0,0.0,0.0,0.0,0.5743589997291565,0.5151281952857971,10.221795082092285,0.0,0.0,0.0,0.0,0.0,0.0,0.0,0.0,0.0
1646244334.753645,6875,1646244334,753257794,,0.0,0.0,0.0,0.0,0.0,0.0,0.0,0.0,0.0,0.0,0.0,0.0,0.0,0.14134813845157623,-0.009024071507155895,-0.44337496161460876,0.0,0.0,0.0,0.0,0.0,0.0,0.0,0.0,0.0,0.6084615588188171,0.3446153998374939,10.246922492980957,0.0,0.0,0.0,0.0,0.0,0.0,0.0,0.0,0.0
1646244334.75594,6876,1646244334,755531907,,0.0,0.0,0.0,0.0,0.0,0.0,0.0,0.0,0.0,0.0,0.0,0.0,0.0,0.14454393088817596,-0.012219863012433052,-0.41141703724861145,0.0,0.0,0.0,0.0,0.0,0.0,0.0,0.0,0.0,-0.014358974993228912,0.44871795177459717,10.266667366027832,0.0,0.0,0.0,0.0,0.0,0.0,0.0,0.0,0.0
1646244334.7581403,6877,1646244334,757794410,,0.0,0.0,0.0,0.0,0.0,0.0,0.0,0.0,0.0,0.0,0.0,0.0,0.0,0.133891299366951,-0.02287250943481922,-0.3634801506996155,0.0,0.0,0.0,0.0,0.0,0.0,0.0,0.0,0.0,0.044871795922517776,0.3302564322948456,10.105128288269043,0.0,0.0,0.0,0.0,0.0,0.0,0.0,0.0,0.0
1646244334.7603073,6878,1646244334,760001263,,0.0,0.0,0.0,0.0,0.0,0.0,0.0,0.0,0.0,0.0,0.0,0.0,0.0,0.1477397382259369,-0.02713356725871563,-0.36987173557281494,0.0,0.0,0.0,0.0,0.0,0.0,0.0,0.0,0.0,0.12743589282035828,0.36974361538887024,10.205641746520996,0.0,0.0,0.0,0.0,0.0,0.0,0.0,0.0,0.0
1646244334.7625487,6879,1646244334,762170430,,0.0,0.0,0.0,0.0,0.0,0.0,0.0,0.0,0.0,0.0,0.0,0.0,0.0,0.12004286050796509,-0.021807242184877396,-0.30276012420654297,0.0,0.0,0.0,0.0,0.0,0.0,0.0,0.0,0.0,0.3482051491737366,0.7197436094284058,10.399486541748047,0.0,0.0,0.0,0.0,0.0,0.0,0.0,0.0,0.0
1646244334.76556,6880,1646244334,764406454,,0.0,0.0,0.0,0.0,0.0,0.0,0.0,0.0,0.0,0.0,0.0,0.0,0.0,0.09341125190258026,-0.01967671327292919,-0.2771937847137451,0.0,0.0,0.0,0.0,0.0,0.0,0.0,0.0,0.0,0.3625641167163849,0.7951282262802124,10.306154251098633,0.0,0.0,0.0,0.0,0.0,0.0,0.0,0.0,0.0
1646244334.767207,6881,1646244334,766595475,,0.0,0.0,0.0,0.0,0.0,0.0,0.0,0.0,0.0,0.0,0.0,0.0,0.0,0.07210595905780792,0.015477010980248451,-0.20688630640506744,0.0,0.0,0.0,0.0,0.0,0.0,0.0,0.0,0.0,0.23333333432674408,0.4917948842048645,10.214615821838379,0.0,0.0,0.0,0.0,0.0,0.0,0.0,0.0,0.0
1646244334.7698224,6882,1646244334,768794949,,0.0,0.0,0.0,0.0,0.0,0.0,0.0,0.0,0.0,0.0,0.0,0.0,0.0,0.02843012474477291,0.004824366886168718,-0.1813199520111084,0.0,0.0,0.0,0.0,0.0,0.0,0.0,0.0,0.0,0.22615385055541992,0.4917948842048645,10.302563667297363,0.0,0.0,0.0,0.0,0.0,0.0,0.0,0.0,0.0
1646244334.7714279,6883,1646244334,771000699,,0.0,0.0,0.0,0.0,0.0,0.0,0.0,0.0,0.0,0.0,0.0,0.0,0.0,0.018842745572328568,-0.018611449748277664,-0.16747154295444489,0.0,0.0,0.0,0.0,0.0,0.0,0.0,0.0,0.0,0.21717949211597443,0.030512820929288864,10.221795082092285,0.0,0.0,0.0,0.0,0.0,0.0,0.0,0.0,0.0
1646244334.773756,6884,1646244334,773220764,,0.0,0.0,0.0,0.0,0.0,0.0,0.0,0.0,0.0,0.0,0.0,0.0,0.0,0.03162591904401779,-0.018611449748277664,-0.10462092608213425,0.0,0.0,0.0,0.0,0.0,0.0,0.0,0.0,0.0,0.18128205835819244,1.0087180137634277,10.173333168029785,0.0,0.0,0.0,0.0,0.0,0.0,0.0,0.0,0.0
1646244334.775862,6885,1646244334,775429319,,0.0,0.0,0.0,0.0,0.0,0.0,0.0,0.0,0.0,0.0,0.0,0.0,0.0,-0.0035278063733130693,-0.028198830783367157,-0.08970722556114197,0.0,0.0,0.0,0.0,0.0,0.0,0.0,0.0,0.0,0.4953846335411072,0.4541025757789612,9.95974349975586,0.0,0.0,0.0,0.0,0.0,0.0,0.0,0.0,0.0
1646244334.7779796,6886,1646244334,777655783,,0.0,0.0,0.0,0.0,0.0,0.0,0.0,0.0,0.0,0.0,0.0,0.0,0.0,-0.015245715156197548,-0.010089334100484848,-0.030052425339818,0.0,0.0,0.0,0.0,0.0,0.0,0.0,0.0,0.0,0.42000001668930054,0.9548718333244324,9.932821273803711,0.0,0.0,0.0,0.0,0.0,0.0,0.0,0.0,0.0
1646244334.7804892,6887,1646244334,779956469,,0.0,0.0,0.0,0.0,0.0,0.0,0.0,0.0,0.0,0.0,0.0,0.0,0.0,-0.02909415028989315,-0.0005019548698328435,0.013623417355120182,0.0,0.0,0.0,0.0,0.0,0.0,0.0,0.0,0.0,0.03948718309402466,0.7341026067733765,10.162564277648926,0.0,0.0,0.0,0.0,0.0,0.0,0.0,0.0,0.0
1646244334.7824798,6888,1646244334,782198198,,0.0,0.0,0.0,0.0,0.0,0.0,0.0,0.0,0.0,0.0,0.0,0.0,0.0,-0.05039943754673004,0.009085424244403839,0.058364517986774445,0.0,0.0,0.0,0.0,0.0,0.0,0.0,0.0,0.0,-0.001794871874153614,0.26923078298568726,9.668973922729492,0.0,0.0,0.0,0.0,0.0,0.0,0.0,0.0,0.0
1646244334.7848716,6889,1646244334,784450097,,0.0,0.0,0.0,0.0,0.0,0.0,0.0,0.0,0.0,0.0,0.0,0.0,0.0,-0.05359522998332977,0.0037591024301946163,0.10310561954975128,0.0,0.0,0.0,0.0,0.0,0.0,0.0,0.0,0.0,-0.22794872522354126,0.6210256814956665,9.830512046813965,0.0,0.0,0.0,0.0,0.0,0.0,0.0,0.0,0.0
1646244334.7870407,6890,1646244334,786672339,,0.0,0.0,0.0,0.0,0.0,0.0,0.0,0.0,0.0,0.0,0.0,0.0,0.0,-0.03548574075102806,0.008020159788429737,0.14678147435188293,0.0,0.0,0.0,0.0,0.0,0.0,0.0,0.0,0.0,0.02153846248984337,0.38410258293151855,9.837692260742188,0.0,0.0,0.0,0.0,0.0,0.0,0.0,0.0,0.0
1646244334.7894387,6891,1646244334,788908269,,0.0,0.0,0.0,0.0,0.0,0.0,0.0,0.0,0.0,0.0,0.0,0.0,0.0,-0.052529964596033096,0.01973806880414486,0.18726150691509247,0.0,0.0,0.0,0.0,0.0,0.0,0.0,0.0,0.0,0.0412820540368557,1.1594871282577515,9.884359359741211,0.0,0.0,0.0,0.0,0.0,0.0,0.0,0.0,0.0
1646244334.7915835,6892,1646244334,791118973,,0.0,0.0,0.0,0.0,0.0,0.0,0.0,0.0,0.0,0.0,0.0,0.0,0.0,-0.05892155319452286,-0.0047630127519369125,0.23626366257667542,0.0,0.0,0.0,0.0,0.0,0.0,0.0,0.0,0.0,-0.03589743748307228,0.4558974504470825,9.733589172363281,0.0,0.0,0.0,0.0,0.0,0.0,0.0,0.0,0.0
1646244334.7937887,6893,1646244334,793461421,,0.0,0.0,0.0,0.0,0.0,0.0,0.0,0.0,0.0,0.0,0.0,0.0,0.0,-0.04400784894824028,0.03678229823708534,0.26289528608322144,0.0,0.0,0.0,0.0,0.0,0.0,0.0,0.0,0.0,-0.07538461685180664,0.5366666913032532,9.870000839233398,0.0,0.0,0.0,0.0,0.0,0.0,0.0,0.0,0.0
1646244334.7961102,6894,1646244334,795660634,,0.0,0.0,0.0,0.0,0.0,0.0,0.0,0.0,0.0,0.0,0.0,0.0,0.0,-0.04081205651164055,0.029325447976589203,0.29378795623779297,0.0,0.0,0.0,0.0,0.0,0.0,0.0,0.0,0.0,-0.07538461685180664,0.4307692348957062,9.730000495910645,0.0,0.0,0.0,0.0,0.0,0.0,0.0,0.0,0.0
1646244334.7983708,6895,1646244334,797902741,,0.0,0.0,0.0,0.0,0.0,0.0,0.0,0.0,0.0,0.0,0.0,0.0,0.0,-0.016310978680849075,-0.007958807051181793,0.33107221126556396,0.0,0.0,0.0,0.0,0.0,0.0,0.0,0.0,0.0,0.12923076748847961,0.22435897588729858,9.473333358764648,0.0,0.0,0.0,0.0,0.0,0.0,0.0,0.0,0.0
1646244334.8006804,6896,1646244334,800277911,,0.0,0.0,0.0,0.0,0.0,0.0,0.0,0.0,0.0,0.0,0.0,0.0,0.0,-0.016310978680849075,0.031455978751182556,0.3715522587299347,0.0,0.0,0.0,0.0,0.0,0.0,0.0,0.0,0.0,0.21897436678409576,0.5653846263885498,9.64384651184082,0.0,0.0,0.0,0.0,0.0,0.0,0.0,0.0,0.0
1646244334.802864,6897,1646244334,802497450,,0.0,0.0,0.0,0.0,0.0,0.0,0.0,0.0,0.0,0.0,0.0,0.0,0.0,-0.028028886765241623,-0.0026324838399887085,0.38220489025115967,0.0,0.0,0.0,0.0,0.0,0.0,0.0,0.0,0.0,0.06461538374423981,0.4684615433216095,9.469743728637695,0.0,0.0,0.0,0.0,0.0,0.0,0.0,0.0,0.0
1646244334.8066034,6898,1646244334,804730981,,0.0,0.0,0.0,0.0,0.0,0.0,0.0,0.0,0.0,0.0,0.0,0.0,0.0,-0.005658335518091917,0.03039071336388588,0.4173586070537567,0.0,0.0,0.0,0.0,0.0,0.0,0.0,0.0,0.0,-0.07717949151992798,0.23512820899486542,9.521795272827148,0.0,0.0,0.0,0.0,0.0,0.0,0.0,0.0,0.0
1646244334.8073032,6899,1646244334,806950876,,0.0,0.0,0.0,0.0,0.0,0.0,0.0,0.0,0.0,0.0,0.0,0.0,0.0,-0.028028886765241623,0.00588963134214282,0.4397291839122772,0.0,0.0,0.0,0.0,0.0,0.0,0.0,0.0,0.0,-0.22435897588729858,0.3069230914115906,9.494871139526367,0.0,0.0,0.0,0.0,0.0,0.0,0.0,0.0,0.0
1646244334.8096085,6900,1646244334,809168225,,0.0,0.0,0.0,0.0,0.0,0.0,0.0,0.0,0.0,0.0,0.0,0.0,0.0,-0.04507311433553696,0.02612965553998947,0.45357760787010193,0.0,0.0,0.0,0.0,0.0,0.0,0.0,0.0,0.0,0.22794872522354126,0.1238461583852768,9.59538459777832,0.0,0.0,0.0,0.0,0.0,0.0,0.0,0.0,0.0
1646244334.8117707,6901,1646244334,811393050,,0.0,0.0,0.0,0.0,0.0,0.0,0.0,0.0,0.0,0.0,0.0,0.0,0.0,-0.037616267800331116,0.006954895332455635,0.4557081460952759,0.0,0.0,0.0,0.0,0.0,0.0,0.0,0.0,0.0,-0.17769230902194977,0.33743590116500854,9.54153823852539,0.0,0.0,0.0,0.0,0.0,0.0,0.0,0.0,0.0
1646244334.8140461,6902,1646244334,813629617,,0.0,0.0,0.0,0.0,0.0,0.0,0.0,0.0,0.0,0.0,0.0,0.0,0.0,-0.07170473039150238,0.0005633095279335976,0.5334724187850952,0.0,0.0,0.0,0.0,0.0,0.0,0.0,0.0,0.0,-0.05384615436196327,0.45769232511520386,9.931025505065918,0.0,0.0,0.0,0.0,0.0,0.0,0.0,0.0,0.0
1646244334.8164027,6903,1646244334,815976424,,0.0,0.0,0.0,0.0,0.0,0.0,0.0,0.0,0.0,0.0,0.0,0.0,0.0,-0.0802268460392952,0.0016285729361698031,0.5441250801086426,0.0,0.0,0.0,0.0,0.0,0.0,0.0,0.0,0.0,-0.07179487496614456,0.4864102602005005,9.819743156433105,0.0,0.0,0.0,0.0,0.0,0.0,0.0,0.0,0.0
1646244334.8185897,6904,1646244334,818185667,,0.0,0.0,0.0,0.0,0.0,0.0,0.0,0.0,0.0,0.0,0.0,0.0,0.0,-0.10472791641950607,-0.0015672193840146065,0.5313419103622437,0.0,0.0,0.0,0.0,0.0,0.0,0.0,0.0,0.0,-0.3123077154159546,0.25128206610679626,9.835898399353027,0.0,0.0,0.0,0.0,0.0,0.0,0.0,0.0,0.0
1646244334.8208826,6905,1646244334,820410999,,0.0,0.0,0.0,0.0,0.0,0.0,0.0,0.0,0.0,0.0,0.0,0.0,0.0,-0.12070688605308533,-0.012219863012433052,0.541994571685791,0.0,0.0,0.0,0.0,0.0,0.0,0.0,0.0,0.0,-0.24948717653751373,0.2764102518558502,10.212820053100586,0.0,0.0,0.0,0.0,0.0,0.0,0.0,0.0,0.0
1646244334.8230453,6906,1646244334,822623020,,0.0,0.0,0.0,0.0,0.0,0.0,0.0,0.0,0.0,0.0,0.0,0.0,0.0,-0.14733850955963135,0.012281217612326145,0.5238850712776184,0.0,0.0,0.0,0.0,0.0,0.0,0.0,0.0,0.0,-0.3571794927120209,0.2441025674343109,9.536153793334961,0.0,0.0,0.0,0.0,0.0,0.0,0.0,0.0,0.0
1646244334.8251934,6907,1646244334,824864828,,0.0,0.0,0.0,0.0,0.0,0.0,0.0,0.0,0.0,0.0,0.0,0.0,0.0,-0.14201217889785767,-0.01115459855645895,0.563299834728241,0.0,0.0,0.0,0.0,0.0,0.0,0.0,0.0,0.0,0.032307691872119904,-0.17589744925498962,9.50205135345459,0.0,0.0,0.0,0.0,0.0,0.0,0.0,0.0,0.0
1646244334.8276489,6908,1646244334,827093782,,0.0,0.0,0.0,0.0,0.0,0.0,0.0,0.0,0.0,0.0,0.0,0.0,0.0,-0.13881638646125793,0.004824366886168718,0.5899314880371094,0.0,0.0,0.0,0.0,0.0,0.0,0.0,0.0,0.0,-0.27820512652397156,0.5097435712814331,9.631281852722168,0.0,0.0,0.0,0.0,0.0,0.0,0.0,0.0,0.0
1646244334.8297281,6909,1646244334,829299669,,0.0,0.0,0.0,0.0,0.0,0.0,0.0,0.0,0.0,0.0,0.0,0.0,0.0,-0.14733850955963135,-0.009024071507155895,0.5760830044746399,0.0,0.0,0.0,0.0,0.0,0.0,0.0,0.0,0.0,-0.3625641167163849,-0.15794873237609863,9.965128898620605,0.0,0.0,0.0,0.0,0.0,0.0,0.0,0.0,0.0
1646244334.8319697,6910,1646244334,831608626,,0.0,0.0,0.0,0.0,0.0,0.0,0.0,0.0,0.0,0.0,0.0,0.0,0.0,-0.17610062658786774,0.006954895332455635,0.5686261653900146,0.0,0.0,0.0,0.0,0.0,0.0,0.0,0.0,0.0,-0.4146153926849365,0.3141025900840759,10.045896530151367,0.0,0.0,0.0,0.0,0.0,0.0,0.0,0.0,0.0
1646244334.8343384,6911,1646244334,833857103,,0.0,0.0,0.0,0.0,0.0,0.0,0.0,0.0,0.0,0.0,0.0,0.0,0.0,-0.1590564101934433,0.0037591024301946163,0.5675609111785889,0.0,0.0,0.0,0.0,0.0,0.0,0.0,0.0,0.0,-0.28179487586021423,0.1794871836900711,9.791025161743164,0.0,0.0,0.0,0.0,0.0,0.0,0.0,0.0,0.0
1646244334.8365276,6912,1646244334,836117090,,0.0,0.0,0.0,0.0,0.0,0.0,0.0,0.0,0.0,0.0,0.0,0.0,0.0,-0.15586061775684357,0.0005633095279335976,0.5824745893478394,0.0,0.0,0.0,0.0,0.0,0.0,0.0,0.0,0.0,-0.3733333349227905,-0.32307693362236023,10.011795043945312,0.0,0.0,0.0,0.0,0.0,0.0,0.0,0.0,0.0
1646244334.8388178,6913,1646244334,838350579,,0.0,0.0,0.0,0.0,0.0,0.0,0.0,0.0,0.0,0.0,0.0,0.0,0.0,-0.13242480158805847,0.017607539892196655,0.5558429956436157,0.0,0.0,0.0,0.0,0.0,0.0,0.0,0.0,0.0,-0.5851281881332397,0.1561538577079773,10.175127983093262,0.0,0.0,0.0,0.0,0.0,0.0,0.0,0.0,0.0
