Time,header.seq,header.stamp.secs,header.stamp.nsecs,header.frame_id,orientation.x,orientation.y,orientation.z,orientation.w,orientation_covariance_0,orientation_covariance_1,orientation_covariance_2,orientation_covariance_3,orientation_covariance_4,orientation_covariance_5,orientation_covariance_6,orientation_covariance_7,orientation_covariance_8,angular_velocity.x,angular_velocity.y,angular_velocity.z,angular_velocity_covariance_0,angular_velocity_covariance_1,angular_velocity_covariance_2,angular_velocity_covariance_3,angular_velocity_covariance_4,angular_velocity_covariance_5,angular_velocity_covariance_6,angular_velocity_covariance_7,angular_velocity_covariance_8,linear_acceleration.x,linear_acceleration.y,linear_acceleration.z,linear_acceleration_covariance_0,linear_acceleration_covariance_1,linear_acceleration_covariance_2,linear_acceleration_covariance_3,linear_acceleration_covariance_4,linear_acceleration_covariance_5,linear_acceleration_covariance_6,linear_acceleration_covariance_7,linear_acceleration_covariance_8
1646351170.8165636,7158,1646351170,816231278,,0.0,0.0,0.0,0.0,0.0,0.0,0.0,0.0,0.0,0.0,0.0,0.0,0.0,0.008371543139219284,0.007573884446173906,-0.006982361897826195,0.0,0.0,0.0,0.0,0.0,0.0,0.0,0.0,0.0,0.10410256683826447,0.1238461583852768,9.728204727172852,0.0,0.0,0.0,0.0,0.0,0.0,0.0,0.0,0.0
1646351170.8186097,7159,1646351170,818416186,,0.0,0.0,0.0,0.0,0.0,0.0,0.0,0.0,0.0,0.0,0.0,0.0,0.0,-0.008672687225043774,-0.005209287628531456,-0.015504478476941586,0.0,0.0,0.0,0.0,0.0,0.0,0.0,0.0,0.0,0.1794871836900711,-0.4307692348957062,9.022820472717285,0.0,0.0,0.0,0.0,0.0,0.0,0.0,0.0,0.0
1646351170.8207648,7160,1646351170,820564009,,0.0,0.0,0.0,0.0,0.0,0.0,0.0,0.0,0.0,0.0,0.0,0.0,0.0,0.019024187698960304,-0.013731402345001698,-0.016569742932915688,0.0,0.0,0.0,0.0,0.0,0.0,0.0,0.0,0.0,-0.07179487496614456,0.07538461685180664,9.948974609375,0.0,0.0,0.0,0.0,0.0,0.0,0.0,0.0,0.0
1646351170.8230507,7161,1646351170,822782124,,0.0,0.0,0.0,0.0,0.0,0.0,0.0,0.0,0.0,0.0,0.0,0.0,0.0,0.006241013761609793,0.009704413823783398,0.00686607463285327,0.0,0.0,0.0,0.0,0.0,0.0,0.0,0.0,0.0,0.36974361538887024,-0.10948718339204788,9.432050704956055,0.0,0.0,0.0,0.0,0.0,0.0,0.0,0.0,0.0
1646351170.8251588,7162,1646351170,824941678,,0.0,0.0,0.0,0.0,0.0,0.0,0.0,0.0,0.0,0.0,0.0,0.0,0.0,0.007306278217583895,0.019291793927550316,-0.0005907765007577837,0.0,0.0,0.0,0.0,0.0,0.0,0.0,0.0,0.0,0.14179487526416779,-0.030512820929288864,9.511025428771973,0.0,0.0,0.0,0.0,0.0,0.0,0.0,0.0,0.0
1646351170.8272352,7163,1646351170,827072404,,0.0,0.0,0.0,0.0,0.0,0.0,0.0,0.0,0.0,0.0,0.0,0.0,0.0,-0.00654215831309557,-0.004144023172557354,-0.01976553350687027,0.0,0.0,0.0,0.0,0.0,0.0,0.0,0.0,0.0,-0.24051281809806824,0.3858974575996399,10.255897521972656,0.0,0.0,0.0,0.0,0.0,0.0,0.0,0.0,0.0
1646351170.8294585,7164,1646351170,829197703,,0.0,0.0,0.0,0.0,0.0,0.0,0.0,0.0,0.0,0.0,0.0,0.0,0.0,0.0030452206265181303,-0.007339817471802235,-0.006982361897826195,0.0,0.0,0.0,0.0,0.0,0.0,0.0,0.0,0.0,-0.5456410050392151,-0.07897436618804932,9.808974266052246,0.0,0.0,0.0,0.0,0.0,0.0,0.0,0.0,0.0
1646351170.8315618,7165,1646351170,831323345,,0.0,0.0,0.0,0.0,0.0,0.0,0.0,0.0,0.0,0.0,0.0,0.0,0.0,0.009436807595193386,0.003312827320769429,-0.011243419721722603,0.0,0.0,0.0,0.0,0.0,0.0,0.0,0.0,0.0,-0.0825641080737114,0.20102564990520477,10.026153564453125,0.0,0.0,0.0,0.0,0.0,0.0,0.0,0.0,0.0
1646351170.8337946,7166,1646351170,833528491,,0.0,0.0,0.0,0.0,0.0,0.0,0.0,0.0,0.0,0.0,0.0,0.0,0.0,-0.0012158364988863468,-0.004144023172557354,-0.005917098838835955,0.0,0.0,0.0,0.0,0.0,0.0,0.0,0.0,0.0,0.19205129146575928,-0.2387179583311081,9.080256462097168,0.0,0.0,0.0,0.0,0.0,0.0,0.0,0.0,0.0
1646351170.8359349,7167,1646351170,835715046,,0.0,0.0,0.0,0.0,0.0,0.0,0.0,0.0,0.0,0.0,0.0,0.0,0.0,0.0009146920638158917,0.001182297826744616,0.007931338623166084,0.0,0.0,0.0,0.0,0.0,0.0,0.0,0.0,0.0,0.23692308366298676,0.15794873237609863,9.530769348144531,0.0,0.0,0.0,0.0,0.0,0.0,0.0,0.0,0.0
1646351170.8381035,7168,1646351170,837849780,,0.0,0.0,0.0,0.0,0.0,0.0,0.0,0.0,0.0,0.0,0.0,0.0,0.0,0.012632600963115692,-0.0009482299210503697,0.0164534542709589,0.0,0.0,0.0,0.0,0.0,0.0,0.0,0.0,0.0,0.4146153926849365,-0.1328205168247223,9.171794891357422,0.0,0.0,0.0,0.0,0.0,0.0,0.0,0.0,0.0
1646351170.8402686,7169,1646351170,840012053,,0.0,0.0,0.0,0.0,0.0,0.0,0.0,0.0,0.0,0.0,0.0,0.0,0.0,-0.009737951681017876,0.00224756239913404,-0.0037865692283958197,0.0,0.0,0.0,0.0,0.0,0.0,0.0,0.0,0.0,0.030512820929288864,0.3482051491737366,10.05846118927002,0.0,0.0,0.0,0.0,0.0,0.0,0.0,0.0,0.0
1646351170.842512,7170,1646351170,842242182,,0.0,0.0,0.0,0.0,0.0,0.0,0.0,0.0,0.0,0.0,0.0,0.0,0.0,-0.002281100954860449,0.004378091543912888,0.018583983182907104,0.0,0.0,0.0,0.0,0.0,0.0,0.0,0.0,0.0,-0.17769230902194977,-0.007179487496614456,9.968717575073242,0.0,0.0,0.0,0.0,0.0,0.0,0.0,0.0,0.0
1646351170.844633,7171,1646351170,844366331,,0.0,0.0,0.0,0.0,0.0,0.0,0.0,0.0,0.0,0.0,0.0,0.0,0.0,0.017958922311663628,0.02142232283949852,0.008996603079140186,0.0,0.0,0.0,0.0,0.0,0.0,0.0,0.0,0.0,0.41102564334869385,0.02153846248984337,9.195128440856934,0.0,0.0,0.0,0.0,0.0,0.0,0.0,0.0,0.0
1646351170.8467596,7172,1646351170,846537725,,0.0,0.0,0.0,0.0,0.0,0.0,0.0,0.0,0.0,0.0,0.0,0.0,0.0,0.013697865419089794,0.00224756239913404,-0.009112890809774399,0.0,0.0,0.0,0.0,0.0,0.0,0.0,0.0,0.0,-0.1148717999458313,-0.01974359154701233,9.539743423461914,0.0,0.0,0.0,0.0,0.0,0.0,0.0,0.0,0.0
1646351170.8489318,7173,1646351170,848680771,,0.0,0.0,0.0,0.0,0.0,0.0,0.0,0.0,0.0,0.0,0.0,0.0,0.0,-0.00441163033246994,0.029944438487291336,0.030301889404654503,0.0,0.0,0.0,0.0,0.0,0.0,0.0,0.0,0.0,0.09153846651315689,-0.23333333432674408,9.545127868652344,0.0,0.0,0.0,0.0,0.0,0.0,0.0,0.0,0.0
1646351170.8510208,7174,1646351170,850803230,,0.0,0.0,0.0,0.0,0.0,0.0,0.0,0.0,0.0,0.0,0.0,0.0,0.0,-0.00015057262498885393,-0.012666137889027596,0.0026050168089568615,0.0,0.0,0.0,0.0,0.0,0.0,0.0,0.0,0.0,-0.10230769217014313,0.2710256576538086,10.408461570739746,0.0,0.0,0.0,0.0,0.0,0.0,0.0,0.0,0.0
1646351170.8531737,7175,1646351170,852968681,,0.0,0.0,0.0,0.0,0.0,0.0,0.0,0.0,0.0,0.0,0.0,0.0,0.0,-0.013999010436236858,0.004378091543912888,0.01112713199108839,0.0,0.0,0.0,0.0,0.0,0.0,0.0,0.0,0.0,-0.36974361538887024,-0.044871795922517776,9.952564239501953,0.0,0.0,0.0,0.0,0.0,0.0,0.0,0.0,0.0
1646351170.8552961,7176,1646351170,855045978,,0.0,0.0,0.0,0.0,0.0,0.0,0.0,0.0,0.0,0.0,0.0,0.0,0.0,0.005175749771296978,-0.008405081927776337,-0.014439214020967484,0.0,0.0,0.0,0.0,0.0,0.0,0.0,0.0,0.0,-0.03589743748307228,0.07538461685180664,10.128461837768555,0.0,0.0,0.0,0.0,0.0,0.0,0.0,0.0,0.0
1646351170.8573303,7177,1646351170,857159322,,0.0,0.0,0.0,0.0,0.0,0.0,0.0,0.0,0.0,0.0,0.0,0.0,0.0,-0.0012158364988863468,0.004378091543912888,0.02710609696805477,0.0,0.0,0.0,0.0,0.0,0.0,0.0,0.0,0.0,0.03948718309402466,-0.2710256576538086,9.078461647033691,0.0,0.0,0.0,0.0,0.0,0.0,0.0,0.0,0.0
1646351170.8596523,7178,1646351170,859368411,,0.0,0.0,0.0,0.0,0.0,0.0,0.0,0.0,0.0,0.0,0.0,0.0,0.0,0.007306278217583895,-0.011600873433053493,0.0015397525858134031,0.0,0.0,0.0,0.0,0.0,0.0,0.0,0.0,0.0,0.07717949151992798,0.08615384995937347,9.713846206665039,0.0,0.0,0.0,0.0,0.0,0.0,0.0,0.0,0.0
1646351170.8618386,7179,1646351170,861547553,,0.0,0.0,0.0,0.0,0.0,0.0,0.0,0.0,0.0,0.0,0.0,0.0,0.0,0.0009146920638158917,0.00224756239913404,-0.01976553350687027,0.0,0.0,0.0,0.0,0.0,0.0,0.0,0.0,0.0,0.07000000029802322,-0.16153846681118011,9.695897102355957,0.0,0.0,0.0,0.0,0.0,0.0,0.0,0.0,0.0
1646351170.8639631,7180,1646351170,863713618,,0.0,0.0,0.0,0.0,0.0,0.0,0.0,0.0,0.0,0.0,0.0,0.0,0.0,-0.003346365410834551,-0.006274553015828133,-0.009112890809774399,0.0,0.0,0.0,0.0,0.0,0.0,0.0,0.0,0.0,0.023333333432674408,0.14000000059604645,9.803589820861816,0.0,0.0,0.0,0.0,0.0,0.0,0.0,0.0,0.0
1646351170.866032,7181,1646351170,865834270,,0.0,0.0,0.0,0.0,0.0,0.0,0.0,0.0,0.0,0.0,0.0,0.0,0.0,-0.00654215831309557,0.010769677348434925,-0.008047626353800297,0.0,0.0,0.0,0.0,0.0,0.0,0.0,0.0,0.0,-0.32487180829048157,0.2064102590084076,10.236153602600098,0.0,0.0,0.0,0.0,0.0,0.0,0.0,0.0,0.0
1646351170.8682067,7182,1646351170,867975787,,0.0,0.0,0.0,0.0,0.0,0.0,0.0,0.0,0.0,0.0,0.0,0.0,0.0,0.013697865419089794,0.00224756239913404,0.01112713199108839,0.0,0.0,0.0,0.0,0.0,0.0,0.0,0.0,0.0,0.25128206610679626,-0.3356410562992096,9.123332977294922,0.0,0.0,0.0,0.0,0.0,0.0,0.0,0.0,0.0
1646351170.8703275,7183,1646351170,870114689,,0.0,0.0,0.0,0.0,0.0,0.0,0.0,0.0,0.0,0.0,0.0,0.0,0.0,-0.018260065466165543,-0.005209287628531456,-0.024026591330766678,0.0,0.0,0.0,0.0,0.0,0.0,0.0,0.0,0.0,-0.23153845965862274,0.17589744925498962,10.011795043945312,0.0,0.0,0.0,0.0,0.0,0.0,0.0,0.0,0.0
1646351170.8725288,7184,1646351170,872284773,,0.0,0.0,0.0,0.0,0.0,0.0,0.0,0.0,0.0,0.0,0.0,0.0,0.0,-0.00654215831309557,-0.013731402345001698,-0.0037865692283958197,0.0,0.0,0.0,0.0,0.0,0.0,0.0,0.0,0.0,-0.3123077154159546,0.09871795028448105,10.05846118927002,0.0,0.0,0.0,0.0,0.0,0.0,0.0,0.0,0.0
1646351170.8746445,7185,1646351170,874463591,,0.0,0.0,0.0,0.0,0.0,0.0,0.0,0.0,0.0,0.0,0.0,0.0,0.0,0.019024187698960304,-0.012666137889027596,-0.0037865692283958197,0.0,0.0,0.0,0.0,0.0,0.0,0.0,0.0,0.0,-0.28358975052833557,0.3087179660797119,10.155384063720703,0.0,0.0,0.0,0.0,0.0,0.0,0.0,0.0,0.0
1646351170.8769789,7186,1646351170,876711975,,0.0,0.0,0.0,0.0,0.0,0.0,0.0,0.0,0.0,0.0,0.0,0.0,0.0,-0.005476894788444042,0.020357057452201843,0.017518719658255577,0.0,0.0,0.0,0.0,0.0,0.0,0.0,0.0,0.0,-0.12205128371715546,-0.1328205168247223,10.002820014953613,0.0,0.0,0.0,0.0,0.0,0.0,0.0,0.0,0.0
1646351170.8790765,7187,1646351170,878841869,,0.0,0.0,0.0,0.0,0.0,0.0,0.0,0.0,0.0,0.0,0.0,0.0,0.0,-0.00015057262498885393,-0.0147966668009758,-0.005917098838835955,0.0,0.0,0.0,0.0,0.0,0.0,0.0,0.0,0.0,-0.014358974993228912,0.1471794843673706,9.999231338500977,0.0,0.0,0.0,0.0,0.0,0.0,0.0,0.0,0.0
1646351170.881866,7188,1646351170,880970283,,0.0,0.0,0.0,0.0,0.0,0.0,0.0,0.0,0.0,0.0,0.0,0.0,0.0,-0.002281100954860449,0.004378091543912888,-0.004851834382861853,0.0,0.0,0.0,0.0,0.0,0.0,0.0,0.0,0.0,0.43974360823631287,-0.23153845965862274,9.15923023223877,0.0,0.0,0.0,0.0,0.0,0.0,0.0,0.0,0.0
1646351170.883277,7189,1646351170,883103299,,0.0,0.0,0.0,0.0,0.0,0.0,0.0,0.0,0.0,0.0,0.0,0.0,0.0,0.006241013761609793,-0.006274553015828133,-0.011243419721722603,0.0,0.0,0.0,0.0,0.0,0.0,0.0,0.0,0.0,0.014358974993228912,0.11666666716337204,9.782051086425781,0.0,0.0,0.0,0.0,0.0,0.0,0.0,0.0,0.0
1646351170.8858669,7190,1646351170,885221817,,0.0,0.0,0.0,0.0,0.0,0.0,0.0,0.0,0.0,0.0,0.0,0.0,0.0,-0.005476894788444042,0.009704413823783398,0.007931338623166084,0.0,0.0,0.0,0.0,0.0,0.0,0.0,0.0,0.0,0.23512820899486542,-0.05564102530479431,9.64923095703125,0.0,0.0,0.0,0.0,0.0,0.0,0.0,0.0,0.0
1646351170.8874667,7191,1646351170,887343018,,0.0,0.0,0.0,0.0,0.0,0.0,0.0,0.0,0.0,0.0,0.0,0.0,0.0,-0.009737951681017876,0.00544335599988699,-0.0005907765007577837,0.0,0.0,0.0,0.0,0.0,0.0,0.0,0.0,0.0,0.44692307710647583,0.0825641080737114,9.317179679870605,0.0,0.0,0.0,0.0,0.0,0.0,0.0,0.0,0.0
1646351170.8897154,7192,1646351170,889458095,,0.0,0.0,0.0,0.0,0.0,0.0,0.0,0.0,0.0,0.0,0.0,0.0,0.0,0.004110485315322876,-0.005209287628531456,0.00686607463285327,0.0,0.0,0.0,0.0,0.0,0.0,0.0,0.0,0.0,0.4594871997833252,-0.12743589282035828,9.424871444702148,0.0,0.0,0.0,0.0,0.0,0.0,0.0,0.0,0.0
1646351170.8919194,7193,1646351170,891630656,,0.0,0.0,0.0,0.0,0.0,0.0,0.0,0.0,0.0,0.0,0.0,0.0,0.0,-0.00441163033246994,-0.007339817471802235,0.000474488188046962,0.0,0.0,0.0,0.0,0.0,0.0,0.0,0.0,0.0,-0.03769230842590332,-0.2441025674343109,9.223846435546875,0.0,0.0,0.0,0.0,0.0,0.0,0.0,0.0,0.0
1646351170.893964,7194,1646351170,893756535,,0.0,0.0,0.0,0.0,0.0,0.0,0.0,0.0,0.0,0.0,0.0,0.0,0.0,-0.005476894788444042,0.012900206260383129,-0.004851834382861853,0.0,0.0,0.0,0.0,0.0,0.0,0.0,0.0,0.0,-0.12923076748847961,0.1651282161474228,10.123077392578125,0.0,0.0,0.0,0.0,0.0,0.0,0.0,0.0,0.0
1646351170.8961406,7195,1646351170,895929709,,0.0,0.0,0.0,0.0,0.0,0.0,0.0,0.0,0.0,0.0,0.0,0.0,0.0,0.02008945122361183,-0.006274553015828133,0.0036702812649309635,0.0,0.0,0.0,0.0,0.0,0.0,0.0,0.0,0.0,-0.5241025686264038,-0.10410256683826447,9.875385284423828,0.0,0.0,0.0,0.0,0.0,0.0,0.0,0.0,0.0
1646351170.8983102,7196,1646351170,898048828,,0.0,0.0,0.0,0.0,0.0,0.0,0.0,0.0,0.0,0.0,0.0,0.0,0.0,-0.01932533085346222,-0.011600873433053493,-0.014439214020967484,0.0,0.0,0.0,0.0,0.0,0.0,0.0,0.0,0.0,-0.16153846681118011,0.2153846174478531,10.180513381958008,0.0,0.0,0.0,0.0,0.0,0.0,0.0,0.0,0.0
1646351170.900383,7197,1646351170,900161592,,0.0,0.0,0.0,0.0,0.0,0.0,0.0,0.0,0.0,0.0,0.0,0.0,0.0,0.007306278217583895,0.003312827320769429,0.0281713604927063,0.0,0.0,0.0,0.0,0.0,0.0,0.0,0.0,0.0,0.16692309081554413,-0.34282052516937256,9.383589744567871,0.0,0.0,0.0,0.0,0.0,0.0,0.0,0.0,0.0
1646351170.9024944,7198,1646351170,902271658,,0.0,0.0,0.0,0.0,0.0,0.0,0.0,0.0,0.0,0.0,0.0,0.0,0.0,0.008371543139219284,0.00224756239913404,-0.014439214020967484,0.0,0.0,0.0,0.0,0.0,0.0,0.0,0.0,0.0,-0.29615384340286255,0.2207692414522171,10.390512466430664,0.0,0.0,0.0,0.0,0.0,0.0,0.0,0.0,0.0
1646351170.904636,7199,1646351170,904398861,,0.0,0.0,0.0,0.0,0.0,0.0,0.0,0.0,0.0,0.0,0.0,0.0,0.0,-0.012933745980262756,-0.0020134944934397936,-0.018700269982218742,0.0,0.0,0.0,0.0,0.0,0.0,0.0,0.0,0.0,-0.48461538553237915,-0.032307691872119904,9.914872169494629,0.0,0.0,0.0,0.0,0.0,0.0,0.0,0.0,0.0
1646351170.9067655,7200,1646351170,906537019,,0.0,0.0,0.0,0.0,0.0,0.0,0.0,0.0,0.0,0.0,0.0,0.0,0.0,0.001979956403374672,-0.01799245923757553,-0.014439214020967484,0.0,0.0,0.0,0.0,0.0,0.0,0.0,0.0,0.0,-0.17769230902194977,0.2566666603088379,10.241538047790527,0.0,0.0,0.0,0.0,0.0,0.0,0.0,0.0,0.0
1646351170.9091308,7201,1646351170,908921875,,0.0,0.0,0.0,0.0,0.0,0.0,0.0,0.0,0.0,0.0,0.0,0.0,0.0,0.012632600963115692,0.022487586364150047,-0.014439214020967484,0.0,0.0,0.0,0.0,0.0,0.0,0.0,0.0,0.0,-0.18666666746139526,0.01794871874153614,9.703076362609863,0.0,0.0,0.0,0.0,0.0,0.0,0.0,0.0,0.0
1646351170.9113023,7202,1646351170,911089936,,0.0,0.0,0.0,0.0,0.0,0.0,0.0,0.0,0.0,0.0,0.0,0.0,0.0,-0.0012158364988863468,-0.008405081927776337,-0.012308684177696705,0.0,0.0,0.0,0.0,0.0,0.0,0.0,0.0,0.0,0.2028205245733261,0.09333333373069763,9.762307167053223,0.0,0.0,0.0,0.0,0.0,0.0,0.0,0.0,0.0
1646351170.9133444,7203,1646351170,913211637,,0.0,0.0,0.0,0.0,0.0,0.0,0.0,0.0,0.0,0.0,0.0,0.0,0.0,-0.013999010436236858,0.007573884446173906,-0.018700269982218742,0.0,0.0,0.0,0.0,0.0,0.0,0.0,0.0,0.0,0.05205128341913223,-0.0412820540368557,9.686923027038574,0.0,0.0,0.0,0.0,0.0,0.0,0.0,0.0,0.0
1646351170.9155834,7204,1646351170,915321002,,0.0,0.0,0.0,0.0,0.0,0.0,0.0,0.0,0.0,0.0,0.0,0.0,0.0,0.007306278217583895,-0.011600873433053493,0.000474488188046962,0.0,0.0,0.0,0.0,0.0,0.0,0.0,0.0,0.0,-0.044871795922517776,0.20461538434028625,9.69948673248291,0.0,0.0,0.0,0.0,0.0,0.0,0.0,0.0,0.0
1646351170.9176478,7205,1646351170,917463315,,0.0,0.0,0.0,0.0,0.0,0.0,0.0,0.0,0.0,0.0,0.0,0.0,0.0,-0.01932533085346222,0.007573884446173906,-0.029352914541959763,0.0,0.0,0.0,0.0,0.0,0.0,0.0,0.0,0.0,0.15794873237609863,-0.09692308306694031,9.719230651855469,0.0,0.0,0.0,0.0,0.0,0.0,0.0,0.0,0.0
1646351170.91983,7206,1646351170,919602378,,0.0,0.0,0.0,0.0,0.0,0.0,0.0,0.0,0.0,0.0,0.0,0.0,0.0,0.008371543139219284,0.00224756239913404,-0.014439214020967484,0.0,0.0,0.0,0.0,0.0,0.0,0.0,0.0,0.0,-0.10230769217014313,-0.1705128252506256,9.593589782714844,0.0,0.0,0.0,0.0,0.0,0.0,0.0,0.0,0.0
1646351170.9220085,7207,1646351170,921813405,,0.0,0.0,0.0,0.0,0.0,0.0,0.0,0.0,0.0,0.0,0.0,0.0,0.0,0.01156733650714159,-0.012666137889027596,-0.02296132780611515,0.0,0.0,0.0,0.0,0.0,0.0,0.0,0.0,0.0,-0.026923077180981636,0.19025641679763794,10.110512733459473,0.0,0.0,0.0,0.0,0.0,0.0,0.0,0.0,0.0
1646351170.924586,7208,1646351170,923987657,,0.0,0.0,0.0,0.0,0.0,0.0,0.0,0.0,0.0,0.0,0.0,0.0,0.0,-0.0012158364988863468,-0.007339817471802235,-0.012308684177696705,0.0,0.0,0.0,0.0,0.0,0.0,0.0,0.0,0.0,-0.2997435927391052,-0.24589744210243225,9.487691879272461,0.0,0.0,0.0,0.0,0.0,0.0,0.0,0.0,0.0
1646351170.9262645,7209,1646351170,926108621,,0.0,0.0,0.0,0.0,0.0,0.0,0.0,0.0,0.0,0.0,0.0,0.0,0.0,-0.00015057262498885393,0.035270754247903824,-0.018700269982218742,0.0,0.0,0.0,0.0,0.0,0.0,0.0,0.0,0.0,0.00897435937076807,0.18666666746139526,9.918461799621582,0.0,0.0,0.0,0.0,0.0,0.0,0.0,0.0,0.0
1646351170.9284816,7210,1646351170,928283930,,0.0,0.0,0.0,0.0,0.0,0.0,0.0,0.0,0.0,0.0,0.0,0.0,0.0,0.004110485315322876,0.00011703448399202898,-0.025091856718063354,0.0,0.0,0.0,0.0,0.0,0.0,0.0,0.0,0.0,0.10948718339204788,-0.2476923167705536,9.593589782714844,0.0,0.0,0.0,0.0,0.0,0.0,0.0,0.0,0.0
1646351170.9306104,7211,1646351170,930412105,,0.0,0.0,0.0,0.0,0.0,0.0,0.0,0.0,0.0,0.0,0.0,0.0,0.0,0.01156733650714159,0.006508619990199804,-0.0005907765007577837,0.0,0.0,0.0,0.0,0.0,0.0,0.0,0.0,0.0,0.08076923340559006,0.19564102590084076,10.0853853225708,0.0,0.0,0.0,0.0,0.0,0.0,0.0,0.0,0.0
1646351170.9327514,7212,1646351170,932544905,,0.0,0.0,0.0,0.0,0.0,0.0,0.0,0.0,0.0,0.0,0.0,0.0,0.0,0.010502072051167488,-0.009470346383750439,-0.03361397236585617,0.0,0.0,0.0,0.0,0.0,0.0,0.0,0.0,0.0,0.014358974993228912,-0.2764102518558502,9.631281852722168,0.0,0.0,0.0,0.0,0.0,0.0,0.0,0.0,0.0
1646351170.9349906,7213,1646351170,934743027,,0.0,0.0,0.0,0.0,0.0,0.0,0.0,0.0,0.0,0.0,0.0,0.0,0.0,0.009436807595193386,-0.006274553015828133,-0.012308684177696705,0.0,0.0,0.0,0.0,0.0,0.0,0.0,0.0,0.0,0.026923077180981636,-0.30512821674346924,9.49666690826416,0.0,0.0,0.0,0.0,0.0,0.0,0.0,0.0,0.0
1646351170.9369807,7214,1646351170,936840838,,0.0,0.0,0.0,0.0,0.0,0.0,0.0,0.0,0.0,0.0,0.0,0.0,0.0,0.007306278217583895,-0.006274553015828133,-0.03361397236585617,0.0,0.0,0.0,0.0,0.0,0.0,0.0,0.0,0.0,-0.07897436618804932,0.032307691872119904,9.999231338500977,0.0,0.0,0.0,0.0,0.0,0.0,0.0,0.0,0.0
1646351170.9391623,7215,1646351170,938987630,,0.0,0.0,0.0,0.0,0.0,0.0,0.0,0.0,0.0,0.0,0.0,0.0,0.0,-0.003346365410834551,-0.004144023172557354,-0.025091856718063354,0.0,0.0,0.0,0.0,0.0,0.0,0.0,0.0,0.0,-0.05205128341913223,-0.1238461583852768,9.633076667785645,0.0,0.0,0.0,0.0,0.0,0.0,0.0,0.0,0.0
1646351170.9414332,7216,1646351170,941183086,,0.0,0.0,0.0,0.0,0.0,0.0,0.0,0.0,0.0,0.0,0.0,0.0,0.0,-0.00441163033246994,0.016095999628305435,-0.03787503018975258,0.0,0.0,0.0,0.0,0.0,0.0,0.0,0.0,0.0,-0.10051282495260239,0.07179487496614456,9.776666641235352,0.0,0.0,0.0,0.0,0.0,0.0,0.0,0.0,0.0
1646351170.9435863,7217,1646351170,943351099,,0.0,0.0,0.0,0.0,0.0,0.0,0.0,0.0,0.0,0.0,0.0,0.0,0.0,-0.01186848059296608,0.004378091543912888,0.0058008101768791676,0.0,0.0,0.0,0.0,0.0,0.0,0.0,0.0,0.0,-0.23512820899486542,-0.2117948830127716,9.54153823852539,0.0,0.0,0.0,0.0,0.0,0.0,0.0,0.0,0.0
1646351170.9457228,7218,1646351170,945481124,,0.0,0.0,0.0,0.0,0.0,0.0,0.0,0.0,0.0,0.0,0.0,0.0,0.0,0.006241013761609793,0.009704413823783398,-0.025091856718063354,0.0,0.0,0.0,0.0,0.0,0.0,0.0,0.0,0.0,-0.10230769217014313,0.04307692497968674,10.010000228881836,0.0,0.0,0.0,0.0,0.0,0.0,0.0,0.0,0.0
1646351170.9478621,7219,1646351170,947608739,,0.0,0.0,0.0,0.0,0.0,0.0,0.0,0.0,0.0,0.0,0.0,0.0,0.0,-0.012933745980262756,0.001182297826744616,-0.016569742932915688,0.0,0.0,0.0,0.0,0.0,0.0,0.0,0.0,0.0,-0.24948717653751373,-0.20461538434028625,9.50205135345459,0.0,0.0,0.0,0.0,0.0,0.0,0.0,0.0,0.0
1646351170.950053,7220,1646351170,949790447,,0.0,0.0,0.0,0.0,0.0,0.0,0.0,0.0,0.0,0.0,0.0,0.0,0.0,0.001979956403374672,-0.008405081927776337,-0.01976553350687027,0.0,0.0,0.0,0.0,0.0,0.0,0.0,0.0,0.0,0.014358974993228912,0.2297435998916626,9.791025161743164,0.0,0.0,0.0,0.0,0.0,0.0,0.0,0.0,0.0
1646351170.9521906,7221,1646351170,951915907,,0.0,0.0,0.0,0.0,0.0,0.0,0.0,0.0,0.0,0.0,0.0,0.0,0.0,-0.003346365410834551,-0.004144023172557354,-0.008047626353800297,0.0,0.0,0.0,0.0,0.0,0.0,0.0,0.0,0.0,0.1974359005689621,-0.11128205060958862,9.692307472229004,0.0,0.0,0.0,0.0,0.0,0.0,0.0,0.0,0.0
1646351170.954246,7222,1646351170,954100621,,0.0,0.0,0.0,0.0,0.0,0.0,0.0,0.0,0.0,0.0,0.0,0.0,0.0,0.01689365692436695,0.013965470716357231,-0.020830798894166946,0.0,0.0,0.0,0.0,0.0,0.0,0.0,0.0,0.0,0.12743589282035828,0.2117948830127716,9.857436180114746,0.0,0.0,0.0,0.0,0.0,0.0,0.0,0.0,0.0
1646351170.9564624,7223,1646351170,956272459,,0.0,0.0,0.0,0.0,0.0,0.0,0.0,0.0,0.0,0.0,0.0,0.0,0.0,-0.00441163033246994,-0.006274553015828133,0.0015397525858134031,0.0,0.0,0.0,0.0,0.0,0.0,0.0,0.0,0.0,0.2207692414522171,-0.21000000834465027,9.449999809265137,0.0,0.0,0.0,0.0,0.0,0.0,0.0,0.0,0.0
1646351170.958629,7224,1646351170,958442786,,0.0,0.0,0.0,0.0,0.0,0.0,0.0,0.0,0.0,0.0,0.0,0.0,0.0,-0.00654215831309557,0.010769677348434925,-0.018700269982218742,0.0,0.0,0.0,0.0,0.0,0.0,0.0,0.0,0.0,-0.11128205060958862,0.22256410121917725,10.017179489135742,0.0,0.0,0.0,0.0,0.0,0.0,0.0,0.0,0.0
1646351170.9608471,7225,1646351170,960619455,,0.0,0.0,0.0,0.0,0.0,0.0,0.0,0.0,0.0,0.0,0.0,0.0,0.0,-0.00441163033246994,-0.0009482299210503697,-0.02722238563001156,0.0,0.0,0.0,0.0,0.0,0.0,0.0,0.0,0.0,-0.03589743748307228,0.01974359154701233,9.701282501220703,0.0,0.0,0.0,0.0,0.0,0.0,0.0,0.0,0.0
1646351170.962958,7226,1646351170,962727861,,0.0,0.0,0.0,0.0,0.0,0.0,0.0,0.0,0.0,0.0,0.0,0.0,0.0,-0.012933745980262756,0.009704413823783398,-0.011243419721722603,0.0,0.0,0.0,0.0,0.0,0.0,0.0,0.0,0.0,-0.17589744925498962,-0.28179487586021423,9.588204383850098,0.0,0.0,0.0,0.0,0.0,0.0,0.0,0.0,0.0
1646351170.9650776,7227,1646351170,964851442,,0.0,0.0,0.0,0.0,0.0,0.0,0.0,0.0,0.0,0.0,0.0,0.0,0.0,0.0030452206265181303,0.00224756239913404,-0.03254871070384979,0.0,0.0,0.0,0.0,0.0,0.0,0.0,0.0,0.0,-0.0825641080737114,0.05743589997291565,9.868205070495605,0.0,0.0,0.0,0.0,0.0,0.0,0.0,0.0,0.0
1646351170.9675884,7228,1646351170,967047188,,0.0,0.0,0.0,0.0,0.0,0.0,0.0,0.0,0.0,0.0,0.0,0.0,0.0,0.02435050904750824,0.009704413823783398,0.008996603079140186,0.0,0.0,0.0,0.0,0.0,0.0,0.0,0.0,0.0,-0.09871795028448105,-0.28717949986457825,9.559487342834473,0.0,0.0,0.0,0.0,0.0,0.0,0.0,0.0,0.0
1646351170.9694068,7229,1646351170,969171021,,0.0,0.0,0.0,0.0,0.0,0.0,0.0,0.0,0.0,0.0,0.0,0.0,0.0,-0.0012158364988863468,-0.007339817471802235,-0.011243419721722603,0.0,0.0,0.0,0.0,0.0,0.0,0.0,0.0,0.0,-0.05564102530479431,0.19025641679763794,10.05666732788086,0.0,0.0,0.0,0.0,0.0,0.0,0.0,0.0,0.0
1646351170.9715297,7230,1646351170,971298404,,0.0,0.0,0.0,0.0,0.0,0.0,0.0,0.0,0.0,0.0,0.0,0.0,0.0,-0.00015057262498885393,-0.003078758716583252,-0.03467923775315285,0.0,0.0,0.0,0.0,0.0,0.0,0.0,0.0,0.0,-0.22435897588729858,-0.2979487180709839,9.686923027038574,0.0,0.0,0.0,0.0,0.0,0.0,0.0,0.0,0.0
1646351170.9737916,7231,1646351170,973504991,,0.0,0.0,0.0,0.0,0.0,0.0,0.0,0.0,0.0,0.0,0.0,0.0,0.0,0.0030452206265181303,0.02142232283949852,-0.0101781552657485,0.0,0.0,0.0,0.0,0.0,0.0,0.0,0.0,0.0,0.05205128341913223,0.03589743748307228,9.9399995803833,0.0,0.0,0.0,0.0,0.0,0.0,0.0,0.0,0.0
1646351170.975913,7232,1646351170,975648011,,0.0,0.0,0.0,0.0,0.0,0.0,0.0,0.0,0.0,0.0,0.0,0.0,0.0,-0.00654215831309557,0.003312827320769429,0.0036702812649309635,0.0,0.0,0.0,0.0,0.0,0.0,0.0,0.0,0.0,-0.15974359214305878,-0.29615384340286255,9.516409873962402,0.0,0.0,0.0,0.0,0.0,0.0,0.0,0.0,0.0
1646351170.9780238,7233,1646351170,977770190,,0.0,0.0,0.0,0.0,0.0,0.0,0.0,0.0,0.0,0.0,0.0,0.0,0.0,0.015828393399715424,-0.0009482299210503697,-0.014439214020967484,0.0,0.0,0.0,0.0,0.0,0.0,0.0,0.0,0.0,-0.001794871874153614,0.07538461685180664,9.767691612243652,0.0,0.0,0.0,0.0,0.0,0.0,0.0,0.0,0.0
1646351170.9801939,7234,1646351170,979893475,,0.0,0.0,0.0,0.0,0.0,0.0,0.0,0.0,0.0,0.0,0.0,0.0,0.0,-0.002281100954860449,-0.0020134944934397936,-0.04107082262635231,0.0,0.0,0.0,0.0,0.0,0.0,0.0,0.0,0.0,0.030512820929288864,-0.05025641247630119,9.65461540222168,0.0,0.0,0.0,0.0,0.0,0.0,0.0,0.0,0.0
1646351170.9823515,7235,1646351170,982075690,,0.0,0.0,0.0,0.0,0.0,0.0,0.0,0.0,0.0,0.0,0.0,0.0,0.0,-0.01186848059296608,0.009704413823783398,-0.020830798894166946,0.0,0.0,0.0,0.0,0.0,0.0,0.0,0.0,0.0,0.15974359214305878,0.19923077523708344,9.758718490600586,0.0,0.0,0.0,0.0,0.0,0.0,0.0,0.0,0.0
1646351170.984539,7236,1646351170,984261875,,0.0,0.0,0.0,0.0,0.0,0.0,0.0,0.0,0.0,0.0,0.0,0.0,0.0,-0.005476894788444042,-0.0147966668009758,-0.035744503140449524,0.0,0.0,0.0,0.0,0.0,0.0,0.0,0.0,0.0,-0.12025640904903412,0.10051282495260239,9.780256271362305,0.0,0.0,0.0,0.0,0.0,0.0,0.0,0.0,0.0
1646351170.9868703,7237,1646351170,986437581,,0.0,0.0,0.0,0.0,0.0,0.0,0.0,0.0,0.0,0.0,0.0,0.0,0.0,0.0009146920638158917,0.01822652854025364,0.0015397525858134031,0.0,0.0,0.0,0.0,0.0,0.0,0.0,0.0,0.0,0.02153846248984337,-0.14358974993228912,9.679743766784668,0.0,0.0,0.0,0.0,0.0,0.0,0.0,0.0,0.0
1646351170.9887378,7238,1646351170,988631147,,0.0,0.0,0.0,0.0,0.0,0.0,0.0,0.0,0.0,0.0,0.0,0.0,0.0,0.005175749771296978,0.00011703448399202898,-0.029352914541959763,0.0,0.0,0.0,0.0,0.0,0.0,0.0,0.0,0.0,-0.026923077180981636,0.22256410121917725,9.821538925170898,0.0,0.0,0.0,0.0,0.0,0.0,0.0,0.0,0.0
1646351170.9909499,7239,1646351170,990753334,,0.0,0.0,0.0,0.0,0.0,0.0,0.0,0.0,0.0,0.0,0.0,0.0,0.0,0.0009146920638158917,-0.016927195712924004,-0.016569742932915688,0.0,0.0,0.0,0.0,0.0,0.0,0.0,0.0,0.0,0.20820513367652893,-0.2764102518558502,9.676154136657715,0.0,0.0,0.0,0.0,0.0,0.0,0.0,0.0,0.0
1646351170.9931164,7240,1646351170,992923395,,0.0,0.0,0.0,0.0,0.0,0.0,0.0,0.0,0.0,0.0,0.0,0.0,0.0,0.006241013761609793,-0.0009482299210503697,-0.03467923775315285,0.0,0.0,0.0,0.0,0.0,0.0,0.0,0.0,0.0,-0.005384615622460842,0.1651282161474228,9.983077049255371,0.0,0.0,0.0,0.0,0.0,0.0,0.0,0.0,0.0
1646351170.9952407,7241,1646351170,995052608,,0.0,0.0,0.0,0.0,0.0,0.0,0.0,0.0,0.0,0.0,0.0,0.0,0.0,-0.0012158364988863468,-0.019057724624872208,-0.024026591330766678,0.0,0.0,0.0,0.0,0.0,0.0,0.0,0.0,0.0,0.16333334147930145,-0.1382051259279251,9.668973922729492,0.0,0.0,0.0,0.0,0.0,0.0,0.0,0.0,0.0
1646351170.997449,7242,1646351170,997209996,,0.0,0.0,0.0,0.0,0.0,0.0,0.0,0.0,0.0,0.0,0.0,0.0,0.0,-0.017194801941514015,-0.0020134944934397936,-0.04852767288684845,0.0,0.0,0.0,0.0,0.0,0.0,0.0,0.0,0.0,0.06102564185857773,0.17230769991874695,9.992051124572754,0.0,0.0,0.0,0.0,0.0,0.0,0.0,0.0,0.0
1646351170.9996529,7243,1646351170,999467685,,0.0,0.0,0.0,0.0,0.0,0.0,0.0,0.0,0.0,0.0,0.0,0.0,0.0,0.009436807595193386,-0.008405081927776337,-0.024026591330766678,0.0,0.0,0.0,0.0,0.0,0.0,0.0,0.0,0.0,0.046666666865348816,-0.25846153497695923,9.674358367919922,0.0,0.0,0.0,0.0,0.0,0.0,0.0,0.0,0.0
1646351171.0018272,7244,1646351171,1589259,,0.0,0.0,0.0,0.0,0.0,0.0,0.0,0.0,0.0,0.0,0.0,0.0,0.0,0.023285245522856712,-0.0020134944934397936,-0.03787503018975258,0.0,0.0,0.0,0.0,0.0,0.0,0.0,0.0,0.0,0.17769230902194977,0.2028205245733261,9.776666641235352,0.0,0.0,0.0,0.0,0.0,0.0,0.0,0.0,0.0
1646351171.0039308,7245,1646351171,3762115,,0.0,0.0,0.0,0.0,0.0,0.0,0.0,0.0,0.0,0.0,0.0,0.0,0.0,-0.007607422769069672,-0.009470346383750439,-0.025091856718063354,0.0,0.0,0.0,0.0,0.0,0.0,0.0,0.0,0.0,0.1794871836900711,-0.16153846681118011,9.55230712890625,0.0,0.0,0.0,0.0,0.0,0.0,0.0,0.0,0.0
1646351171.0061069,7246,1646351171,5887183,,0.0,0.0,0.0,0.0,0.0,0.0,0.0,0.0,0.0,0.0,0.0,0.0,0.0,0.006241013761609793,0.009704413823783398,-0.0101781552657485,0.0,0.0,0.0,0.0,0.0,0.0,0.0,0.0,0.0,-0.38948720693588257,-0.17589744925498962,9.731794357299805,0.0,0.0,0.0,0.0,0.0,0.0,0.0,0.0,0.0
1646351171.0086548,7247,1646351171,8006586,,0.0,0.0,0.0,0.0,0.0,0.0,0.0,0.0,0.0,0.0,0.0,0.0,0.0,0.014763129875063896,-0.020122988149523735,-0.035744503140449524,0.0,0.0,0.0,0.0,0.0,0.0,0.0,0.0,0.0,0.05743589997291565,0.19384616613388062,9.9005126953125,0.0,0.0,0.0,0.0,0.0,0.0,0.0,0.0,0.0
1646351171.0106692,7248,1646351171,10217327,,0.0,0.0,0.0,0.0,0.0,0.0,0.0,0.0,0.0,0.0,0.0,0.0,0.0,-0.00654215831309557,0.006508619990199804,-0.04107082262635231,0.0,0.0,0.0,0.0,0.0,0.0,0.0,0.0,0.0,-0.31051284074783325,-0.20461538434028625,9.658205032348633,0.0,0.0,0.0,0.0,0.0,0.0,0.0,0.0,0.0
1646351171.0128584,7249,1646351171,12461973,,0.0,0.0,0.0,0.0,0.0,0.0,0.0,0.0,0.0,0.0,0.0,0.0,0.0,-0.009737951681017876,-0.0009482299210503697,-0.03361397236585617,0.0,0.0,0.0,0.0,0.0,0.0,0.0,0.0,0.0,-0.09333333373069763,0.12923076748847961,9.999231338500977,0.0,0.0,0.0,0.0,0.0,0.0,0.0,0.0,0.0
1646351171.0149786,7250,1646351171,14675005,,0.0,0.0,0.0,0.0,0.0,0.0,0.0,0.0,0.0,0.0,0.0,0.0,0.0,0.007306278217583895,-0.013731402345001698,-0.02296132780611515,0.0,0.0,0.0,0.0,0.0,0.0,0.0,0.0,0.0,0.010769231244921684,-0.11307692527770996,9.746153831481934,0.0,0.0,0.0,0.0,0.0,0.0,0.0,0.0,0.0
1646351171.017317,7251,1646351171,16888282,,0.0,0.0,0.0,0.0,0.0,0.0,0.0,0.0,0.0,0.0,0.0,0.0,0.0,0.0030452206265181303,-0.004144023172557354,-0.028287649154663086,0.0,0.0,0.0,0.0,0.0,0.0,0.0,0.0,0.0,0.09333333373069763,0.22615385055541992,9.733589172363281,0.0,0.0,0.0,0.0,0.0,0.0,0.0,0.0,0.0
1646351171.0194085,7252,1646351171,19095803,,0.0,0.0,0.0,0.0,0.0,0.0,0.0,0.0,0.0,0.0,0.0,0.0,0.0,-0.003346365410834551,0.02142232283949852,-0.03361397236585617,0.0,0.0,0.0,0.0,0.0,0.0,0.0,0.0,0.0,0.05384615436196327,-0.08435897529125214,9.480512619018555,0.0,0.0,0.0,0.0,0.0,0.0,0.0,0.0,0.0
1646351171.0217147,7253,1646351171,21303912,,0.0,0.0,0.0,0.0,0.0,0.0,0.0,0.0,0.0,0.0,0.0,0.0,0.0,0.006241013761609793,0.02142232283949852,-0.01976553350687027,0.0,0.0,0.0,0.0,0.0,0.0,0.0,0.0,0.0,0.05025641247630119,0.24230769276618958,9.85564136505127,0.0,0.0,0.0,0.0,0.0,0.0,0.0,0.0,0.0
1646351171.023978,7254,1646351171,23608220,,0.0,0.0,0.0,0.0,0.0,0.0,0.0,0.0,0.0,0.0,0.0,0.0,0.0,-0.023586388677358627,0.004378091543912888,-0.031483445316553116,0.0,0.0,0.0,0.0,0.0,0.0,0.0,0.0,0.0,0.2064102590084076,-0.1884615421295166,9.480512619018555,0.0,0.0,0.0,0.0,0.0,0.0,0.0,0.0,0.0
1646351171.0265555,7255,1646351171,25903828,,0.0,0.0,0.0,0.0,0.0,0.0,0.0,0.0,0.0,0.0,0.0,0.0,0.0,0.009436807595193386,0.010769677348434925,-0.012308684177696705,0.0,0.0,0.0,0.0,0.0,0.0,0.0,0.0,0.0,-0.18487180769443512,-0.1794871836900711,9.559487342834473,0.0,0.0,0.0,0.0,0.0,0.0,0.0,0.0,0.0
1646351171.0293963,7256,1646351171,28134806,,0.0,0.0,0.0,0.0,0.0,0.0,0.0,0.0,0.0,0.0,0.0,0.0,0.0,-0.008672687225043774,0.025683380663394928,-0.03787503018975258,0.0,0.0,0.0,0.0,0.0,0.0,0.0,0.0,0.0,0.01794871874153614,0.0825641080737114,9.923846244812012,0.0,0.0,0.0,0.0,0.0,0.0,0.0,0.0,0.0
1646351171.0308375,7257,1646351171,30401433,,0.0,0.0,0.0,0.0,0.0,0.0,0.0,0.0,0.0,0.0,0.0,0.0,0.0,-0.005476894788444042,0.01822652854025364,-0.012308684177696705,0.0,0.0,0.0,0.0,0.0,0.0,0.0,0.0,0.0,-0.026923077180981636,-0.30512821674346924,9.482307434082031,0.0,0.0,0.0,0.0,0.0,0.0,0.0,0.0,0.0
1646351171.0331807,7258,1646351171,32663689,,0.0,0.0,0.0,0.0,0.0,0.0,0.0,0.0,0.0,0.0,0.0,0.0,0.0,-0.00015057262498885393,-0.012666137889027596,-0.021896062418818474,0.0,0.0,0.0,0.0,0.0,0.0,0.0,0.0,0.0,-0.08076923340559006,0.31948718428611755,9.755127906799316,0.0,0.0,0.0,0.0,0.0,0.0,0.0,0.0,0.0
1646351171.03527,7259,1646351171,34879941,,0.0,0.0,0.0,0.0,0.0,0.0,0.0,0.0,0.0,0.0,0.0,0.0,0.0,0.014763129875063896,0.026748644188046455,-0.029352914541959763,0.0,0.0,0.0,0.0,0.0,0.0,0.0,0.0,0.0,-0.03410256281495094,0.14538460969924927,9.762307167053223,0.0,0.0,0.0,0.0,0.0,0.0,0.0,0.0,0.0
1646351171.0375273,7260,1646351171,37127464,,0.0,0.0,0.0,0.0,0.0,0.0,0.0,0.0,0.0,0.0,0.0,0.0,0.0,-0.00654215831309557,-0.0009482299210503697,-0.028287649154663086,0.0,0.0,0.0,0.0,0.0,0.0,0.0,0.0,0.0,0.11846154183149338,-0.10410256683826447,9.722820281982422,0.0,0.0,0.0,0.0,0.0,0.0,0.0,0.0,0.0
1646351171.0396743,7261,1646351171,39340846,,0.0,0.0,0.0,0.0,0.0,0.0,0.0,0.0,0.0,0.0,0.0,0.0,0.0,0.015828393399715424,0.013965470716357231,-0.031483445316553116,0.0,0.0,0.0,0.0,0.0,0.0,0.0,0.0,0.0,-0.046666666865348816,0.10410256683826447,9.89512825012207,0.0,0.0,0.0,0.0,0.0,0.0,0.0,0.0,0.0
1646351171.0419135,7262,1646351171,41569308,,0.0,0.0,0.0,0.0,0.0,0.0,0.0,0.0,0.0,0.0,0.0,0.0,0.0,0.02115471661090851,0.00011703448399202898,-0.03041817992925644,0.0,0.0,0.0,0.0,0.0,0.0,0.0,0.0,0.0,0.1058974415063858,0.10769230872392654,9.805384635925293,0.0,0.0,0.0,0.0,0.0,0.0,0.0,0.0,0.0
1646351171.0441802,7263,1646351171,43745196,,0.0,0.0,0.0,0.0,0.0,0.0,0.0,0.0,0.0,0.0,0.0,0.0,0.0,0.005175749771296978,-0.005209287628531456,-0.04107082262635231,0.0,0.0,0.0,0.0,0.0,0.0,0.0,0.0,0.0,-0.09512820839881897,0.30512821674346924,9.986666679382324,0.0,0.0,0.0,0.0,0.0,0.0,0.0,0.0,0.0
1646351171.0463676,7264,1646351171,45931301,,0.0,0.0,0.0,0.0,0.0,0.0,0.0,0.0,0.0,0.0,0.0,0.0,0.0,0.01156733650714159,0.00544335599988699,-0.012308684177696705,0.0,0.0,0.0,0.0,0.0,0.0,0.0,0.0,0.0,0.01794871874153614,-0.24948717653751373,9.661794662475586,0.0,0.0,0.0,0.0,0.0,0.0,0.0,0.0,0.0
1646351171.0492792,7265,1646351171,48122795,,0.0,0.0,0.0,0.0,0.0,0.0,0.0,0.0,0.0,0.0,0.0,0.0,0.0,0.01156733650714159,-0.004144023172557354,-0.04533188045024872,0.0,0.0,0.0,0.0,0.0,0.0,0.0,0.0,0.0,0.09153846651315689,0.23333333432674408,9.956153869628906,0.0,0.0,0.0,0.0,0.0,0.0,0.0,0.0,0.0
1646351171.0506358,7266,1646351171,50319734,,0.0,0.0,0.0,0.0,0.0,0.0,0.0,0.0,0.0,0.0,0.0,0.0,0.0,-0.01932533085346222,0.017161265015602112,-0.008047626353800297,0.0,0.0,0.0,0.0,0.0,0.0,0.0,0.0,0.0,-0.06282051652669907,-0.2746153771877289,9.670769691467285,0.0,0.0,0.0,0.0,0.0,0.0,0.0,0.0,0.0
1646351171.0528815,7267,1646351171,52529163,,0.0,0.0,0.0,0.0,0.0,0.0,0.0,0.0,0.0,0.0,0.0,0.0,0.0,0.01156733650714159,0.00224756239913404,-0.025091856718063354,0.0,0.0,0.0,0.0,0.0,0.0,0.0,0.0,0.0,-0.06820512562990189,0.22794872522354126,10.132050514221191,0.0,0.0,0.0,0.0,0.0,0.0,0.0,0.0,0.0
1646351171.0552764,7268,1646351171,54795192,,0.0,0.0,0.0,0.0,0.0,0.0,0.0,0.0,0.0,0.0,0.0,0.0,0.0,0.01156733650714159,-0.007339817471802235,-0.0368097685277462,0.0,0.0,0.0,0.0,0.0,0.0,0.0,0.0,0.0,-0.30512821674346924,0.18307693302631378,9.914872169494629,0.0,0.0,0.0,0.0,0.0,0.0,0.0,0.0,0.0
1646351171.057479,7269,1646351171,57081168,,0.0,0.0,0.0,0.0,0.0,0.0,0.0,0.0,0.0,0.0,0.0,0.0,0.0,-0.005476894788444042,-0.008405081927776337,-0.0368097685277462,0.0,0.0,0.0,0.0,0.0,0.0,0.0,0.0,0.0,-0.14538460969924927,0.15974359214305878,9.812564849853516,0.0,0.0,0.0,0.0,0.0,0.0,0.0,0.0,0.0
1646351171.0596247,7270,1646351171,59293543,,0.0,0.0,0.0,0.0,0.0,0.0,0.0,0.0,0.0,0.0,0.0,0.0,0.0,0.010502072051167488,0.00224756239913404,-0.050658199936151505,0.0,0.0,0.0,0.0,0.0,0.0,0.0,0.0,0.0,-0.10948718339204788,0.10230769217014313,10.038718223571777,0.0,0.0,0.0,0.0,0.0,0.0,0.0,0.0,0.0
1646351171.0618713,7271,1646351171,61490603,,0.0,0.0,0.0,0.0,0.0,0.0,0.0,0.0,0.0,0.0,0.0,0.0,0.0,-0.008672687225043774,-0.007339817471802235,-0.02722238563001156,0.0,0.0,0.0,0.0,0.0,0.0,0.0,0.0,0.0,-0.3589743673801422,-0.2710256576538086,9.59538459777832,0.0,0.0,0.0,0.0,0.0,0.0,0.0,0.0,0.0
1646351171.0640929,7272,1646351171,63747973,,0.0,0.0,0.0,0.0,0.0,0.0,0.0,0.0,0.0,0.0,0.0,0.0,0.0,0.010502072051167488,0.007573884446173906,-0.04426661506295204,0.0,0.0,0.0,0.0,0.0,0.0,0.0,0.0,0.0,-0.012564103119075298,0.24051281809806824,9.808974266052246,0.0,0.0,0.0,0.0,0.0,0.0,0.0,0.0,0.0
1646351171.0662694,7273,1646351171,65951152,,0.0,0.0,0.0,0.0,0.0,0.0,0.0,0.0,0.0,0.0,0.0,0.0,0.0,0.001979956403374672,0.003312827320769429,-0.03361397236585617,0.0,0.0,0.0,0.0,0.0,0.0,0.0,0.0,0.0,-0.04307692497968674,-0.08974359184503555,9.755127906799316,0.0,0.0,0.0,0.0,0.0,0.0,0.0,0.0,0.0
1646351171.0685425,7274,1646351171,68129583,,0.0,0.0,0.0,0.0,0.0,0.0,0.0,0.0,0.0,0.0,0.0,0.0,0.0,-0.01932533085346222,0.015030735172331333,-0.031483445316553116,0.0,0.0,0.0,0.0,0.0,0.0,0.0,0.0,0.0,-0.06820512562990189,0.2853846251964569,9.826923370361328,0.0,0.0,0.0,0.0,0.0,0.0,0.0,0.0,0.0
1646351171.071099,7275,1646351171,70371023,,0.0,0.0,0.0,0.0,0.0,0.0,0.0,0.0,0.0,0.0,0.0,0.0,0.0,-0.007607422769069672,0.019291793927550316,-0.0368097685277462,0.0,0.0,0.0,0.0,0.0,0.0,0.0,0.0,0.0,0.05384615436196327,-0.1328205168247223,9.433846473693848,0.0,0.0,0.0,0.0,0.0,0.0,0.0,0.0,0.0
1646351171.07297,7276,1646351171,72643011,,0.0,0.0,0.0,0.0,0.0,0.0,0.0,0.0,0.0,0.0,0.0,0.0,0.0,0.007306278217583895,0.015030735172331333,-0.029352914541959763,0.0,0.0,0.0,0.0,0.0,0.0,0.0,0.0,0.0,0.10769230872392654,0.19923077523708344,9.733589172363281,0.0,0.0,0.0,0.0,0.0,0.0,0.0,0.0,0.0
1646351171.0751832,7277,1646351171,74867278,,0.0,0.0,0.0,0.0,0.0,0.0,0.0,0.0,0.0,0.0,0.0,0.0,0.0,-0.00654215831309557,0.019291793927550316,-0.03041817992925644,0.0,0.0,0.0,0.0,0.0,0.0,0.0,0.0,0.0,0.026923077180981636,0.07897436618804932,9.74794864654541,0.0,0.0,0.0,0.0,0.0,0.0,0.0,0.0,0.0
1646351171.0775197,7278,1646351171,77109805,,0.0,0.0,0.0,0.0,0.0,0.0,0.0,0.0,0.0,0.0,0.0,0.0,0.0,-0.009737951681017876,0.011834941804409027,-0.060245580971241,0.0,0.0,0.0,0.0,0.0,0.0,0.0,0.0,0.0,-0.1328205168247223,-0.07179487496614456,9.4858980178833,0.0,0.0,0.0,0.0,0.0,0.0,0.0,0.0,0.0
1646351171.0796683,7279,1646351171,79331130,,0.0,0.0,0.0,0.0,0.0,0.0,0.0,0.0,0.0,0.0,0.0,0.0,0.0,0.004110485315322876,-0.004144023172557354,-0.04426661506295204,0.0,0.0,0.0,0.0,0.0,0.0,0.0,0.0,0.0,0.00897435937076807,0.12743589282035828,9.518204689025879,0.0,0.0,0.0,0.0,0.0,0.0,0.0,0.0,0.0
1646351171.0819864,7280,1646351171,81523820,,0.0,0.0,0.0,0.0,0.0,0.0,0.0,0.0,0.0,0.0,0.0,0.0,0.0,-0.02571691758930683,0.00544335599988699,-0.06344137340784073,0.0,0.0,0.0,0.0,0.0,0.0,0.0,0.0,0.0,-0.030512820929288864,-0.2566666603088379,9.713846206665039,0.0,0.0,0.0,0.0,0.0,0.0,0.0,0.0,0.0
1646351171.0840538,7281,1646351171,83723597,,0.0,0.0,0.0,0.0,0.0,0.0,0.0,0.0,0.0,0.0,0.0,0.0,0.0,-0.023586388677358627,0.01822652854025364,-0.04533188045024872,0.0,0.0,0.0,0.0,0.0,0.0,0.0,0.0,0.0,-0.3302564322948456,-0.21000000834465027,9.591794967651367,0.0,0.0,0.0,0.0,0.0,0.0,0.0,0.0,0.0
1646351171.0864818,7282,1646351171,85933694,,0.0,0.0,0.0,0.0,0.0,0.0,0.0,0.0,0.0,0.0,0.0,0.0,0.0,-0.024651652202010155,0.01822652854025364,-0.06557190418243408,0.0,0.0,0.0,0.0,0.0,0.0,0.0,0.0,0.0,-0.3123077154159546,0.1884615421295166,10.227179527282715,0.0,0.0,0.0,0.0,0.0,0.0,0.0,0.0,0.0
1646351171.0886033,7283,1646351171,88184120,,0.0,0.0,0.0,0.0,0.0,0.0,0.0,0.0,0.0,0.0,0.0,0.0,0.0,-0.024651652202010155,0.02142232283949852,-0.07622455060482025,0.0,0.0,0.0,0.0,0.0,0.0,0.0,0.0,0.0,-0.5223076939582825,-0.2530769407749176,9.756922721862793,0.0,0.0,0.0,0.0,0.0,0.0,0.0,0.0,0.0
1646351171.0926042,7284,1646351171,90443338,,0.0,0.0,0.0,0.0,0.0,0.0,0.0,0.0,0.0,0.0,0.0,0.0,0.0,-0.017194801941514015,0.02142232283949852,-0.06237610802054405,0.0,0.0,0.0,0.0,0.0,0.0,0.0,0.0,0.0,-0.14538460969924927,-0.012564103119075298,9.995640754699707,0.0,0.0,0.0,0.0,0.0,0.0,0.0,0.0,0.0
1646351171.0931385,7285,1646351171,92679527,,0.0,0.0,0.0,0.0,0.0,0.0,0.0,0.0,0.0,0.0,0.0,0.0,0.0,-0.04382640868425369,0.023552851751446724,-0.05598452314734459,0.0,0.0,0.0,0.0,0.0,0.0,0.0,0.0,0.0,-0.12205128371715546,-0.15794873237609863,9.668973922729492,0.0,0.0,0.0,0.0,0.0,0.0,0.0,0.0,0.0
1646351171.095248,7286,1646351171,94880720,,0.0,0.0,0.0,0.0,0.0,0.0,0.0,0.0,0.0,0.0,0.0,0.0,0.0,-0.017194801941514015,-0.003078758716583252,-0.07622455060482025,0.0,0.0,0.0,0.0,0.0,0.0,0.0,0.0,0.0,0.16153846681118011,0.1561538577079773,9.638461112976074,0.0,0.0,0.0,0.0,0.0,0.0,0.0,0.0,0.0
1646351171.097496,7287,1646351171,97111249,,0.0,0.0,0.0,0.0,0.0,0.0,0.0,0.0,0.0,0.0,0.0,0.0,0.0,-0.024651652202010155,-0.010535608977079391,-0.07942034304141998,0.0,0.0,0.0,0.0,0.0,0.0,0.0,0.0,0.0,-0.005384615622460842,-0.14538460969924927,9.516409873962402,0.0,0.0,0.0,0.0,0.0,0.0,0.0,0.0,0.0
1646351171.099906,7288,1646351171,99392448,,0.0,0.0,0.0,0.0,0.0,0.0,0.0,0.0,0.0,0.0,0.0,0.0,0.0,-0.031043240800499916,0.016095999628305435,-0.07728981226682663,0.0,0.0,0.0,0.0,0.0,0.0,0.0,0.0,0.0,-0.24051281809806824,-0.26384615898132324,9.733589172363281,0.0,0.0,0.0,0.0,0.0,0.0,0.0,0.0,0.0
1646351171.1020591,7289,1646351171,101651882,,0.0,0.0,0.0,0.0,0.0,0.0,0.0,0.0,0.0,0.0,0.0,0.0,0.0,-0.03530430048704147,-0.011600873433053493,-0.0879424586892128,0.0,0.0,0.0,0.0,0.0,0.0,0.0,0.0,0.0,-0.15974359214305878,0.08435897529125214,9.774871826171875,0.0,0.0,0.0,0.0,0.0,0.0,0.0,0.0,0.0
1646351171.104427,7290,1646351171,103874087,,0.0,0.0,0.0,0.0,0.0,0.0,0.0,0.0,0.0,0.0,0.0,0.0,0.0,-0.00654215831309557,0.016095999628305435,-0.06557190418243408,0.0,0.0,0.0,0.0,0.0,0.0,0.0,0.0,0.0,0.21717949211597443,-0.3266666829586029,9.473333358764648,0.0,0.0,0.0,0.0,0.0,0.0,0.0,0.0,0.0
1646351171.106337,7291,1646351171,106080960,,0.0,0.0,0.0,0.0,0.0,0.0,0.0,0.0,0.0,0.0,0.0,0.0,0.0,0.019024187698960304,0.013965470716357231,-0.08900772035121918,0.0,0.0,0.0,0.0,0.0,0.0,0.0,0.0,0.0,-0.05564102530479431,0.10948718339204788,9.65461540222168,0.0,0.0,0.0,0.0,0.0,0.0,0.0,0.0,0.0
1646351171.1087933,7292,1646351171,108363961,,0.0,0.0,0.0,0.0,0.0,0.0,0.0,0.0,0.0,0.0,0.0,0.0,0.0,-0.024651652202010155,-0.013731402345001698,-0.06344137340784073,0.0,0.0,0.0,0.0,0.0,0.0,0.0,0.0,0.0,0.24948717653751373,-0.3033333420753479,9.665384292602539,0.0,0.0,0.0,0.0,0.0,0.0,0.0,0.0,0.0
1646351171.110944,7293,1646351171,110626600,,0.0,0.0,0.0,0.0,0.0,0.0,0.0,0.0,0.0,0.0,0.0,0.0,0.0,0.004110485315322876,-0.0147966668009758,-0.08368139714002609,0.0,0.0,0.0,0.0,0.0,0.0,0.0,0.0,0.0,-0.21358974277973175,-0.23692308366298676,9.54692268371582,0.0,0.0,0.0,0.0,0.0,0.0,0.0,0.0,0.0
1646351171.1132207,7294,1646351171,112848843,,0.0,0.0,0.0,0.0,0.0,0.0,0.0,0.0,0.0,0.0,0.0,0.0,0.0,-0.0012158364988863468,0.00224756239913404,-0.09326878190040588,0.0,0.0,0.0,0.0,0.0,0.0,0.0,0.0,0.0,-0.35538461804389954,0.08076923340559006,9.9399995803833,0.0,0.0,0.0,0.0,0.0,0.0,0.0,0.0,0.0
1646351171.1156087,7295,1646351171,115031666,,0.0,0.0,0.0,0.0,0.0,0.0,0.0,0.0,0.0,0.0,0.0,0.0,0.0,-0.00441163033246994,-0.003078758716583252,-0.05918031558394432,0.0,0.0,0.0,0.0,0.0,0.0,0.0,0.0,0.0,-0.36974361538887024,-0.22256410121917725,9.789230346679688,0.0,0.0,0.0,0.0,0.0,0.0,0.0,0.0,0.0
1646351171.1176512,7296,1646351171,117272015,,0.0,0.0,0.0,0.0,0.0,0.0,0.0,0.0,0.0,0.0,0.0,0.0,0.0,0.004110485315322876,-0.01799245923757553,-0.11350880563259125,0.0,0.0,0.0,0.0,0.0,0.0,0.0,0.0,0.0,-0.12025640904903412,0.05205128341913223,9.95974349975586,0.0,0.0,0.0,0.0,0.0,0.0,0.0,0.0,0.0
1646351171.1200864,7297,1646351171,119535689,,0.0,0.0,0.0,0.0,0.0,0.0,0.0,0.0,0.0,0.0,0.0,0.0,0.0,-0.01506427489221096,-0.027579842135310173,-0.08048560470342636,0.0,0.0,0.0,0.0,0.0,0.0,0.0,0.0,0.0,0.25128206610679626,-0.28358975052833557,9.543333053588867,0.0,0.0,0.0,0.0,0.0,0.0,0.0,0.0,0.0
1646351171.1222188,7298,1646351171,121763671,,0.0,0.0,0.0,0.0,0.0,0.0,0.0,0.0,0.0,0.0,0.0,0.0,0.0,-0.021455859765410423,-0.016927195712924004,-0.0879424586892128,0.0,0.0,0.0,0.0,0.0,0.0,0.0,0.0,0.0,-0.012564103119075298,0.16692309081554413,9.823333740234375,0.0,0.0,0.0,0.0,0.0,0.0,0.0,0.0,0.0
1646351171.1243997,7299,1646351171,124005162,,0.0,0.0,0.0,0.0,0.0,0.0,0.0,0.0,0.0,0.0,0.0,0.0,0.0,-0.00654215831309557,-0.013731402345001698,-0.08900772035121918,0.0,0.0,0.0,0.0,0.0,0.0,0.0,0.0,0.0,0.14897435903549194,-0.3733333349227905,9.598974227905273,0.0,0.0,0.0,0.0,0.0,0.0,0.0,0.0,0.0
1646351171.126524,7300,1646351171,126257321,,0.0,0.0,0.0,0.0,0.0,0.0,0.0,0.0,0.0,0.0,0.0,0.0,0.0,-0.021455859765410423,-0.03929774835705757,-0.11031300574541092,0.0,0.0,0.0,0.0,0.0,0.0,0.0,0.0,0.0,0.016153845936059952,0.048461541533470154,10.076410293579102,0.0,0.0,0.0,0.0,0.0,0.0,0.0,0.0,0.0
1646351171.1288278,7301,1646351171,128485888,,0.0,0.0,0.0,0.0,0.0,0.0,0.0,0.0,0.0,0.0,0.0,0.0,0.0,-0.01506427489221096,-0.007339817471802235,-0.07728981226682663,0.0,0.0,0.0,0.0,0.0,0.0,0.0,0.0,0.0,0.08435897529125214,-0.27820512652397156,9.64564037322998,0.0,0.0,0.0,0.0,0.0,0.0,0.0,0.0,0.0
1646351171.1309128,7302,1646351171,130704108,,0.0,0.0,0.0,0.0,0.0,0.0,0.0,0.0,0.0,0.0,0.0,0.0,0.0,-0.024651652202010155,-0.019057724624872208,-0.07835507392883301,0.0,0.0,0.0,0.0,0.0,0.0,0.0,0.0,0.0,-0.18307693302631378,-0.11846154183149338,9.821538925170898,0.0,0.0,0.0,0.0,0.0,0.0,0.0,0.0,0.0
1646351171.1338415,7303,1646351171,132860082,,0.0,0.0,0.0,0.0,0.0,0.0,0.0,0.0,0.0,0.0,0.0,0.0,0.0,-0.02997797727584839,-0.0147966668009758,-0.09539930522441864,0.0,0.0,0.0,0.0,0.0,0.0,0.0,0.0,0.0,0.07179487496614456,-0.11128205060958862,9.744359016418457,0.0,0.0,0.0,0.0,0.0,0.0,0.0,0.0,0.0
1646351171.1353297,7304,1646351171,135167818,,0.0,0.0,0.0,0.0,0.0,0.0,0.0,0.0,0.0,0.0,0.0,0.0,0.0,-0.012933745980262756,-0.03610195219516754,-0.09539930522441864,0.0,0.0,0.0,0.0,0.0,0.0,0.0,0.0,0.0,-0.21358974277973175,-0.33743590116500854,9.521795272827148,0.0,0.0,0.0,0.0,0.0,0.0,0.0,0.0,0.0
1646351171.137445,7305,1646351171,137288369,,0.0,0.0,0.0,0.0,0.0,0.0,0.0,0.0,0.0,0.0,0.0,0.0,0.0,-0.005476894788444042,-0.010535608977079391,-0.11350880563259125,0.0,0.0,0.0,0.0,0.0,0.0,0.0,0.0,0.0,-0.28179487586021423,0.09512820839881897,10.0369234085083,0.0,0.0,0.0,0.0,0.0,0.0,0.0,0.0,0.0
1646351171.1397676,7306,1646351171,139508459,,0.0,0.0,0.0,0.0,0.0,0.0,0.0,0.0,0.0,0.0,0.0,0.0,0.0,-0.016129538416862488,-0.04036301001906395,-0.11244353652000427,0.0,0.0,0.0,0.0,0.0,0.0,0.0,0.0,0.0,-0.36076924204826355,0.048461541533470154,9.758718490600586,0.0,0.0,0.0,0.0,0.0,0.0,0.0,0.0,0.0
1646351171.141825,7307,1646351171,141670628,,0.0,0.0,0.0,0.0,0.0,0.0,0.0,0.0,0.0,0.0,0.0,0.0,0.0,-0.005476894788444042,-0.008405081927776337,-0.08048560470342636,0.0,0.0,0.0,0.0,0.0,0.0,0.0,0.0,0.0,-0.26384615898132324,0.1741025745868683,10.05666732788086,0.0,0.0,0.0,0.0,0.0,0.0,0.0,0.0,0.0
1646351171.1440797,7308,1646351171,143837521,,0.0,0.0,0.0,0.0,0.0,0.0,0.0,0.0,0.0,0.0,0.0,0.0,0.0,0.004110485315322876,-0.015861930325627327,-0.10818248242139816,0.0,0.0,0.0,0.0,0.0,0.0,0.0,0.0,0.0,-0.19384616613388062,-0.026923077180981636,9.64923095703125,0.0,0.0,0.0,0.0,0.0,0.0,0.0,0.0,0.0
1646351171.146082,7309,1646351171,145959099,,0.0,0.0,0.0,0.0,0.0,0.0,0.0,0.0,0.0,0.0,0.0,0.0,0.0,0.02008945122361183,-0.012666137889027596,-0.08155086636543274,0.0,0.0,0.0,0.0,0.0,0.0,0.0,0.0,0.0,-0.005384615622460842,0.2387179583311081,9.55230712890625,0.0,0.0,0.0,0.0,0.0,0.0,0.0,0.0,0.0
1646351171.1482782,7310,1646351171,148084186,,0.0,0.0,0.0,0.0,0.0,0.0,0.0,0.0,0.0,0.0,0.0,0.0,0.0,-0.00015057262498885393,0.006508619990199804,-0.08261613547801971,0.0,0.0,0.0,0.0,0.0,0.0,0.0,0.0,0.0,0.2028205245733261,-0.24948717653751373,9.374615669250488,0.0,0.0,0.0,0.0,0.0,0.0,0.0,0.0,0.0
1646351171.150511,7311,1646351171,150263145,,0.0,0.0,0.0,0.0,0.0,0.0,0.0,0.0,0.0,0.0,0.0,0.0,0.0,0.033937886357307434,0.00544335599988699,-0.09113825112581253,0.0,0.0,0.0,0.0,0.0,0.0,0.0,0.0,0.0,-0.08615384995937347,0.2710256576538086,9.618718147277832,0.0,0.0,0.0,0.0,0.0,0.0,0.0,0.0,0.0
1646351171.152653,7312,1646351171,152450048,,0.0,0.0,0.0,0.0,0.0,0.0,0.0,0.0,0.0,0.0,0.0,0.0,0.0,0.01689365692436695,-0.003078758716583252,-0.07515928149223328,0.0,0.0,0.0,0.0,0.0,0.0,0.0,0.0,0.0,-0.1794871836900711,0.030512820929288864,9.866410255432129,0.0,0.0,0.0,0.0,0.0,0.0,0.0,0.0,0.0
1646351171.1547642,7313,1646351171,154615839,,0.0,0.0,0.0,0.0,0.0,0.0,0.0,0.0,0.0,0.0,0.0,0.0,0.0,0.007306278217583895,0.006508619990199804,-0.07942034304141998,0.0,0.0,0.0,0.0,0.0,0.0,0.0,0.0,0.0,-0.3715384900569916,-0.19923077523708344,9.667179107666016,0.0,0.0,0.0,0.0,0.0,0.0,0.0,0.0,0.0
1646351171.1569328,7314,1646351171,156776944,,0.0,0.0,0.0,0.0,0.0,0.0,0.0,0.0,0.0,0.0,0.0,0.0,0.0,-0.008672687225043774,0.023552851751446724,-0.07835507392883301,0.0,0.0,0.0,0.0,0.0,0.0,0.0,0.0,0.0,0.1705128252506256,0.1705128252506256,9.73717975616455,0.0,0.0,0.0,0.0,0.0,0.0,0.0,0.0,0.0
1646351171.1591117,7315,1646351171,158917982,,0.0,0.0,0.0,0.0,0.0,0.0,0.0,0.0,0.0,0.0,0.0,0.0,0.0,0.001979956403374672,0.01822652854025364,-0.07089822739362717,0.0,0.0,0.0,0.0,0.0,0.0,0.0,0.0,0.0,0.044871795922517776,-0.34282052516937256,9.464359283447266,0.0,0.0,0.0,0.0,0.0,0.0,0.0,0.0,0.0
1646351171.1612978,7316,1646351171,161074324,,0.0,0.0,0.0,0.0,0.0,0.0,0.0,0.0,0.0,0.0,0.0,0.0,0.0,-0.021455859765410423,0.015030735172331333,-0.06770243495702744,0.0,0.0,0.0,0.0,0.0,0.0,0.0,0.0,0.0,-0.1471794843673706,0.15974359214305878,10.207435607910156,0.0,0.0,0.0,0.0,0.0,0.0,0.0,0.0,0.0
1646351171.163352,7317,1646351171,163201525,,0.0,0.0,0.0,0.0,0.0,0.0,0.0,0.0,0.0,0.0,0.0,0.0,0.0,-0.023586388677358627,0.029944438487291336,-0.06770243495702744,0.0,0.0,0.0,0.0,0.0,0.0,0.0,0.0,0.0,-0.2764102518558502,-0.30153846740722656,10.080000877380371,0.0,0.0,0.0,0.0,0.0,0.0,0.0,0.0,0.0
1646351171.1655536,7318,1646351171,165326930,,0.0,0.0,0.0,0.0,0.0,0.0,0.0,0.0,0.0,0.0,0.0,0.0,0.0,-0.045956939458847046,0.025683380663394928,-0.09646457433700562,0.0,0.0,0.0,0.0,0.0,0.0,0.0,0.0,0.0,-0.1238461583852768,0.10230769217014313,10.169743537902832,0.0,0.0,0.0,0.0,0.0,0.0,0.0,0.0,0.0
1646351171.1676571,7319,1646351171,167484384,,0.0,0.0,0.0,0.0,0.0,0.0,0.0,0.0,0.0,0.0,0.0,0.0,0.0,-0.04489167407155037,0.012900206260383129,-0.06557190418243408,0.0,0.0,0.0,0.0,0.0,0.0,0.0,0.0,0.0,-0.16871795058250427,0.10051282495260239,10.069230079650879,0.0,0.0,0.0,0.0,0.0,0.0,0.0,0.0,0.0
1646351171.1698189,7320,1646351171,169626815,,0.0,0.0,0.0,0.0,0.0,0.0,0.0,0.0,0.0,0.0,0.0,0.0,0.0,-0.03530430048704147,0.013965470716357231,-0.08368139714002609,0.0,0.0,0.0,0.0,0.0,0.0,0.0,0.0,0.0,0.016153845936059952,-0.14358974993228912,9.746153831481934,0.0,0.0,0.0,0.0,0.0,0.0,0.0,0.0,0.0
1646351171.1718266,7321,1646351171,171721430,,0.0,0.0,0.0,0.0,0.0,0.0,0.0,0.0,0.0,0.0,0.0,0.0,0.0,-0.021455859765410423,0.022487586364150047,-0.08474666625261307,0.0,0.0,0.0,0.0,0.0,0.0,0.0,0.0,0.0,0.07179487496614456,-0.21717949211597443,9.545127868652344,0.0,0.0,0.0,0.0,0.0,0.0,0.0,0.0,0.0
1646351171.1744773,7322,1646351171,173853861,,0.0,0.0,0.0,0.0,0.0,0.0,0.0,0.0,0.0,0.0,0.0,0.0,0.0,-0.04382640868425369,0.008639149367809296,-0.07728981226682663,0.0,0.0,0.0,0.0,0.0,0.0,0.0,0.0,0.0,-0.4558974504470825,-0.1884615421295166,9.794615745544434,0.0,0.0,0.0,0.0,0.0,0.0,0.0,0.0,0.0
1646351171.1761048,7323,1646351171,175953499,,0.0,0.0,0.0,0.0,0.0,0.0,0.0,0.0,0.0,0.0,0.0,0.0,0.0,-0.03743482753634453,0.031009702011942863,-0.09007298201322556,0.0,0.0,0.0,0.0,0.0,0.0,0.0,0.0,0.0,-0.023333333432674408,0.05384615436196327,9.798205375671387,0.0,0.0,0.0,0.0,0.0,0.0,0.0,0.0,0.0
1646351171.178183,7324,1646351171,178056414,,0.0,0.0,0.0,0.0,0.0,0.0,0.0,0.0,0.0,0.0,0.0,0.0,0.0,-0.038500092923641205,0.016095999628305435,-0.05918031558394432,0.0,0.0,0.0,0.0,0.0,0.0,0.0,0.0,0.0,-0.1974359005689621,-0.3176923394203186,9.195128440856934,0.0,0.0,0.0,0.0,0.0,0.0,0.0,0.0,0.0
1646351171.1802673,7325,1646351171,180165792,,0.0,0.0,0.0,0.0,0.0,0.0,0.0,0.0,0.0,0.0,0.0,0.0,0.0,-0.023586388677358627,0.015030735172331333,-0.08900772035121918,0.0,0.0,0.0,0.0,0.0,0.0,0.0,0.0,0.0,-0.014358974993228912,-0.10948718339204788,9.511025428771973,0.0,0.0,0.0,0.0,0.0,0.0,0.0,0.0,0.0
1646351171.1823962,7326,1646351171,182270538,,0.0,0.0,0.0,0.0,0.0,0.0,0.0,0.0,0.0,0.0,0.0,0.0,0.0,-0.0012158364988863468,0.015030735172331333,-0.07942034304141998,0.0,0.0,0.0,0.0,0.0,0.0,0.0,0.0,0.0,-0.21717949211597443,-0.25487178564071655,9.579231262207031,0.0,0.0,0.0,0.0,0.0,0.0,0.0,0.0,0.0
1646351171.1845202,7327,1646351171,184395954,,0.0,0.0,0.0,0.0,0.0,0.0,0.0,0.0,0.0,0.0,0.0,0.0,0.0,-0.04169588163495064,0.031009702011942863,-0.07622455060482025,0.0,0.0,0.0,0.0,0.0,0.0,0.0,0.0,0.0,-0.3500000238418579,0.10769230872392654,9.880769729614258,0.0,0.0,0.0,0.0,0.0,0.0,0.0,0.0,0.0
1646351171.186624,7328,1646351171,186484277,,0.0,0.0,0.0,0.0,0.0,0.0,0.0,0.0,0.0,0.0,0.0,0.0,0.0,-0.024651652202010155,0.017161265015602112,-0.07942034304141998,0.0,0.0,0.0,0.0,0.0,0.0,0.0,0.0,0.0,-0.025128206238150597,-0.3176923394203186,9.730000495910645,0.0,0.0,0.0,0.0,0.0,0.0,0.0,0.0,0.0
1646351171.1887581,7329,1646351171,188609330,,0.0,0.0,0.0,0.0,0.0,0.0,0.0,0.0,0.0,0.0,0.0,0.0,0.0,0.006241013761609793,0.02887917309999466,-0.09113825112581253,0.0,0.0,0.0,0.0,0.0,0.0,0.0,0.0,0.0,-0.2656410336494446,0.1561538577079773,10.062051773071289,0.0,0.0,0.0,0.0,0.0,0.0,0.0,0.0,0.0
1646351171.1909227,7330,1646351171,190728508,,0.0,0.0,0.0,0.0,0.0,0.0,0.0,0.0,0.0,0.0,0.0,0.0,0.0,-0.009737951681017876,0.025683380663394928,-0.08900772035121918,0.0,0.0,0.0,0.0,0.0,0.0,0.0,0.0,0.0,0.044871795922517776,-0.18487180769443512,9.484102249145508,0.0,0.0,0.0,0.0,0.0,0.0,0.0,0.0,0.0
1646351171.1929054,7331,1646351171,192830354,,0.0,0.0,0.0,0.0,0.0,0.0,0.0,0.0,0.0,0.0,0.0,0.0,0.0,0.010502072051167488,0.00544335599988699,-0.10072562843561172,0.0,0.0,0.0,0.0,0.0,0.0,0.0,0.0,0.0,-0.03948718309402466,0.1328205168247223,9.706666946411133,0.0,0.0,0.0,0.0,0.0,0.0,0.0,0.0,0.0
1646351171.1952238,7332,1646351171,195122267,,0.0,0.0,0.0,0.0,0.0,0.0,0.0,0.0,0.0,0.0,0.0,0.0,0.0,0.006241013761609793,-0.009470346383750439,-0.10285615921020508,0.0,0.0,0.0,0.0,0.0,0.0,0.0,0.0,0.0,-0.18666666746139526,-0.1148717999458313,9.918461799621582,0.0,0.0,0.0,0.0,0.0,0.0,0.0,0.0,0.0
1646351171.1973536,7333,1646351171,197193456,,0.0,0.0,0.0,0.0,0.0,0.0,0.0,0.0,0.0,0.0,0.0,0.0,0.0,0.010502072051167488,0.02142232283949852,-0.06983295828104019,0.0,0.0,0.0,0.0,0.0,0.0,0.0,0.0,0.0,0.1884615421295166,0.014358974993228912,9.868205070495605,0.0,0.0,0.0,0.0,0.0,0.0,0.0,0.0,0.0
1646351171.199563,7334,1646351171,199410742,,0.0,0.0,0.0,0.0,0.0,0.0,0.0,0.0,0.0,0.0,0.0,0.0,0.0,0.02435050904750824,0.009704413823783398,-0.09113825112581253,0.0,0.0,0.0,0.0,0.0,0.0,0.0,0.0,0.0,0.26923078298568726,-0.2566666603088379,9.222050666809082,0.0,0.0,0.0,0.0,0.0,0.0,0.0,0.0,0.0
1646351171.2017336,7335,1646351171,201556477,,0.0,0.0,0.0,0.0,0.0,0.0,0.0,0.0,0.0,0.0,0.0,0.0,0.0,0.013697865419089794,0.006508619990199804,-0.060245580971241,0.0,0.0,0.0,0.0,0.0,0.0,0.0,0.0,0.0,-0.014358974993228912,-0.3033333420753479,9.367435455322266,0.0,0.0,0.0,0.0,0.0,0.0,0.0,0.0,0.0
1646351171.2037556,7336,1646351171,203650124,,0.0,0.0,0.0,0.0,0.0,0.0,0.0,0.0,0.0,0.0,0.0,0.0,0.0,0.05311264470219612,-0.013731402345001698,-0.08368139714002609,0.0,0.0,0.0,0.0,0.0,0.0,0.0,0.0,0.0,0.19564102590084076,0.001794871874153614,9.543333053588867,0.0,0.0,0.0,0.0,0.0,0.0,0.0,0.0,0.0
1646351171.2058206,7337,1646351171,205754193,,0.0,0.0,0.0,0.0,0.0,0.0,0.0,0.0,0.0,0.0,0.0,0.0,0.0,0.022219980135560036,-0.019057724624872208,-0.09007298201322556,0.0,0.0,0.0,0.0,0.0,0.0,0.0,0.0,0.0,-0.08076923340559006,-0.3392307758331299,9.417692184448242,0.0,0.0,0.0,0.0,0.0,0.0,0.0,0.0,0.0
1646351171.2080708,7338,1646351171,207857188,,0.0,0.0,0.0,0.0,0.0,0.0,0.0,0.0,0.0,0.0,0.0,0.0,0.0,0.026481037959456444,-0.02118825353682041,-0.07835507392883301,0.0,0.0,0.0,0.0,0.0,0.0,0.0,0.0,0.0,0.03769230842590332,0.05384615436196327,10.024358749389648,0.0,0.0,0.0,0.0,0.0,0.0,0.0,0.0,0.0
1646351171.2101266,7339,1646351171,209997853,,0.0,0.0,0.0,0.0,0.0,0.0,0.0,0.0,0.0,0.0,0.0,0.0,0.0,0.023285245522856712,-0.0020134944934397936,-0.08900772035121918,0.0,0.0,0.0,0.0,0.0,0.0,0.0,0.0,0.0,0.37512820959091187,-0.3912820518016815,9.421281814575195,0.0,0.0,0.0,0.0,0.0,0.0,0.0,0.0,0.0
1646351171.2124364,7340,1646351171,212132450,,0.0,0.0,0.0,0.0,0.0,0.0,0.0,0.0,0.0,0.0,0.0,0.0,0.0,0.029676830396056175,-0.03184089809656143,-0.097529835999012,0.0,0.0,0.0,0.0,0.0,0.0,0.0,0.0,0.0,0.22794872522354126,0.06641025841236115,9.826923370361328,0.0,0.0,0.0,0.0,0.0,0.0,0.0,0.0,0.0
1646351171.214358,7341,1646351171,214234334,,0.0,0.0,0.0,0.0,0.0,0.0,0.0,0.0,0.0,0.0,0.0,0.0,0.0,0.01156733650714159,-0.007339817471802235,-0.0645066350698471,0.0,0.0,0.0,0.0,0.0,0.0,0.0,0.0,0.0,-0.3123077154159546,-0.20820513367652893,9.810769081115723,0.0,0.0,0.0,0.0,0.0,0.0,0.0,0.0,0.0
1646351171.216872,7342,1646351171,216447958,,0.0,0.0,0.0,0.0,0.0,0.0,0.0,0.0,0.0,0.0,0.0,0.0,0.0,0.03500314801931381,-0.02118825353682041,-0.11244353652000427,0.0,0.0,0.0,0.0,0.0,0.0,0.0,0.0,0.0,-0.05025641247630119,0.07538461685180664,10.4515380859375,0.0,0.0,0.0,0.0,0.0,0.0,0.0,0.0,0.0
1646351171.2190511,7343,1646351171,218669754,,0.0,0.0,0.0,0.0,0.0,0.0,0.0,0.0,0.0,0.0,0.0,0.0,0.0,0.01156733650714159,-0.008405081927776337,-0.06344137340784073,0.0,0.0,0.0,0.0,0.0,0.0,0.0,0.0,0.0,-0.41102564334869385,0.06282051652669907,10.151795387268066,0.0,0.0,0.0,0.0,0.0,0.0,0.0,0.0,0.0
1646351171.2214377,7344,1646351171,220929768,,0.0,0.0,0.0,0.0,0.0,0.0,0.0,0.0,0.0,0.0,0.0,0.0,0.0,-0.012933745980262756,-0.0020134944934397936,-0.08261613547801971,0.0,0.0,0.0,0.0,0.0,0.0,0.0,0.0,0.0,-0.032307691872119904,-0.07179487496614456,9.886154174804688,0.0,0.0,0.0,0.0,0.0,0.0,0.0,0.0,0.0
1646351171.2236605,7345,1646351171,223219922,,0.0,0.0,0.0,0.0,0.0,0.0,0.0,0.0,0.0,0.0,0.0,0.0,0.0,0.0030452206265181303,-0.003078758716583252,-0.10498668998479843,0.0,0.0,0.0,0.0,0.0,0.0,0.0,0.0,0.0,-0.12025640904903412,-0.10230769217014313,9.530769348144531,0.0,0.0,0.0,0.0,0.0,0.0,0.0,0.0,0.0
1646351171.2258127,7346,1646351171,225424302,,0.0,0.0,0.0,0.0,0.0,0.0,0.0,0.0,0.0,0.0,0.0,0.0,0.0,0.0030452206265181303,0.00224756239913404,-0.07302875071763992,0.0,0.0,0.0,0.0,0.0,0.0,0.0,0.0,0.0,0.18128205835819244,-0.03410256281495094,9.44820499420166,0.0,0.0,0.0,0.0,0.0,0.0,0.0,0.0,0.0
1646351171.2281225,7347,1646351171,227710576,,0.0,0.0,0.0,0.0,0.0,0.0,0.0,0.0,0.0,0.0,0.0,0.0,0.0,-0.002281100954860449,0.00224756239913404,-0.09539930522441864,0.0,0.0,0.0,0.0,0.0,0.0,0.0,0.0,0.0,-0.09333333373069763,-0.048461541533470154,9.661794662475586,0.0,0.0,0.0,0.0,0.0,0.0,0.0,0.0,0.0
1646351171.2304046,7348,1646351171,229974195,,0.0,0.0,0.0,0.0,0.0,0.0,0.0,0.0,0.0,0.0,0.0,0.0,0.0,-0.012933745980262756,0.010769677348434925,-0.09433404356241226,0.0,0.0,0.0,0.0,0.0,0.0,0.0,0.0,0.0,-0.001794871874153614,-0.3266666829586029,9.45358943939209,0.0,0.0,0.0,0.0,0.0,0.0,0.0,0.0,0.0
1646351171.232491,7349,1646351171,232176289,,0.0,0.0,0.0,0.0,0.0,0.0,0.0,0.0,0.0,0.0,0.0,0.0,0.0,0.013697865419089794,0.010769677348434925,-0.09859509766101837,0.0,0.0,0.0,0.0,0.0,0.0,0.0,0.0,0.0,-0.003589743748307228,0.2441025674343109,9.870000839233398,0.0,0.0,0.0,0.0,0.0,0.0,0.0,0.0,0.0
1646351171.2354732,7350,1646351171,234389279,,0.0,0.0,0.0,0.0,0.0,0.0,0.0,0.0,0.0,0.0,0.0,0.0,0.0,0.004110485315322876,0.011834941804409027,-0.08900772035121918,0.0,0.0,0.0,0.0,0.0,0.0,0.0,0.0,0.0,0.31051284074783325,-0.2117948830127716,9.677948951721191,0.0,0.0,0.0,0.0,0.0,0.0,0.0,0.0,0.0
1646351171.2370782,7351,1646351171,236618804,,0.0,0.0,0.0,0.0,0.0,0.0,0.0,0.0,0.0,0.0,0.0,0.0,0.0,0.0030452206265181303,0.013965470716357231,-0.115639328956604,0.0,0.0,0.0,0.0,0.0,0.0,0.0,0.0,0.0,0.048461541533470154,0.025128206238150597,10.14640998840332,0.0,0.0,0.0,0.0,0.0,0.0,0.0,0.0,0.0
1646351171.2391493,7352,1646351171,238797447,,0.0,0.0,0.0,0.0,0.0,0.0,0.0,0.0,0.0,0.0,0.0,0.0,0.0,0.037133678793907166,-0.013731402345001698,-0.10924774408340454,0.0,0.0,0.0,0.0,0.0,0.0,0.0,0.0,0.0,0.3320513069629669,0.046666666865348816,9.819743156433105,0.0,0.0,0.0,0.0,0.0,0.0,0.0,0.0,0.0
1646351171.2414641,7353,1646351171,241055484,,0.0,0.0,0.0,0.0,0.0,0.0,0.0,0.0,0.0,0.0,0.0,0.0,0.0,-0.00654215831309557,0.012900206260383129,-0.0879424586892128,0.0,0.0,0.0,0.0,0.0,0.0,0.0,0.0,0.0,-0.12205128371715546,-0.1651282161474228,9.520000457763672,0.0,0.0,0.0,0.0,0.0,0.0,0.0,0.0,0.0
1646351171.243809,7354,1646351171,243274728,,0.0,0.0,0.0,0.0,0.0,0.0,0.0,0.0,0.0,0.0,0.0,0.0,0.0,0.007306278217583895,0.003312827320769429,-0.09966036677360535,0.0,0.0,0.0,0.0,0.0,0.0,0.0,0.0,0.0,0.01794871874153614,0.2028205245733261,10.001025199890137,0.0,0.0,0.0,0.0,0.0,0.0,0.0,0.0,0.0
1646351171.2459586,7355,1646351171,245548374,,0.0,0.0,0.0,0.0,0.0,0.0,0.0,0.0,0.0,0.0,0.0,0.0,0.0,0.023285245522856712,-0.003078758716583252,-0.09539930522441864,0.0,0.0,0.0,0.0,0.0,0.0,0.0,0.0,0.0,0.1651282161474228,-0.032307691872119904,9.844871520996094,0.0,0.0,0.0,0.0,0.0,0.0,0.0,0.0,0.0
1646351171.2481709,7356,1646351171,247786506,,0.0,0.0,0.0,0.0,0.0,0.0,0.0,0.0,0.0,0.0,0.0,0.0,0.0,0.007306278217583895,-0.009470346383750439,-0.1017908900976181,0.0,0.0,0.0,0.0,0.0,0.0,0.0,0.0,0.0,0.06641025841236115,0.38410258293151855,10.128461837768555,0.0,0.0,0.0,0.0,0.0,0.0,0.0,0.0,0.0
1646351171.2505085,7357,1646351171,250072351,,0.0,0.0,0.0,0.0,0.0,0.0,0.0,0.0,0.0,0.0,0.0,0.0,0.0,0.03180735930800438,-0.006274553015828133,-0.09966036677360535,0.0,0.0,0.0,0.0,0.0,0.0,0.0,0.0,0.0,0.10948718339204788,-0.03589743748307228,10.006409645080566,0.0,0.0,0.0,0.0,0.0,0.0,0.0,0.0,0.0
1646351171.2525587,7358,1646351171,252284300,,0.0,0.0,0.0,0.0,0.0,0.0,0.0,0.0,0.0,0.0,0.0,0.0,0.0,0.017958922311663628,-0.009470346383750439,-0.09113825112581253,0.0,0.0,0.0,0.0,0.0,0.0,0.0,0.0,0.0,-0.007179487496614456,0.3410256505012512,10.026153564453125,0.0,0.0,0.0,0.0,0.0,0.0,0.0,0.0,0.0
1646351171.25623,7359,1646351171,254483304,,0.0,0.0,0.0,0.0,0.0,0.0,0.0,0.0,0.0,0.0,0.0,0.0,0.0,-0.007607422769069672,-0.016927195712924004,-0.10498668998479843,0.0,0.0,0.0,0.0,0.0,0.0,0.0,0.0,0.0,0.3500000238418579,-0.2476923167705536,9.498461723327637,0.0,0.0,0.0,0.0,0.0,0.0,0.0,0.0,0.0
1646351171.256983,7360,1646351171,256705296,,0.0,0.0,0.0,0.0,0.0,0.0,0.0,0.0,0.0,0.0,0.0,0.0,0.0,-0.008672687225043774,-0.0147966668009758,-0.09646457433700562,0.0,0.0,0.0,0.0,0.0,0.0,0.0,0.0,0.0,-0.23333333432674408,-0.15794873237609863,9.633076667785645,0.0,0.0,0.0,0.0,0.0,0.0,0.0,0.0,0.0
1646351171.2593167,7361,1646351171,258953277,,0.0,0.0,0.0,0.0,0.0,0.0,0.0,0.0,0.0,0.0,0.0,0.0,0.0,-0.010803216136991978,-0.004144023172557354,-0.10818248242139816,0.0,0.0,0.0,0.0,0.0,0.0,0.0,0.0,0.0,0.12564103305339813,-0.007179487496614456,9.825127601623535,0.0,0.0,0.0,0.0,0.0,0.0,0.0,0.0,0.0
1646351171.261638,7362,1646351171,261223483,,0.0,0.0,0.0,0.0,0.0,0.0,0.0,0.0,0.0,0.0,0.0,0.0,0.0,-0.024651652202010155,-0.009470346383750439,-0.07302875071763992,0.0,0.0,0.0,0.0,0.0,0.0,0.0,0.0,0.0,-0.08974359184503555,-0.1148717999458313,9.94359016418457,0.0,0.0,0.0,0.0,0.0,0.0,0.0,0.0,0.0
1646351171.2640944,7363,1646351171,263433003,,0.0,0.0,0.0,0.0,0.0,0.0,0.0,0.0,0.0,0.0,0.0,0.0,0.0,-0.02678218111395836,-0.006274553015828133,-0.10498668998479843,0.0,0.0,0.0,0.0,0.0,0.0,0.0,0.0,0.0,-0.07897436618804932,0.08794872462749481,9.972307205200195,0.0,0.0,0.0,0.0,0.0,0.0,0.0,0.0,0.0
1646351171.2660565,7364,1646351171,265704915,,0.0,0.0,0.0,0.0,0.0,0.0,0.0,0.0,0.0,0.0,0.0,0.0,0.0,-0.02678218111395836,0.012900206260383129,-0.08368139714002609,0.0,0.0,0.0,0.0,0.0,0.0,0.0,0.0,0.0,-0.05923077091574669,-0.20820513367652893,9.780256271362305,0.0,0.0,0.0,0.0,0.0,0.0,0.0,0.0,0.0
1646351171.268538,7365,1646351171,267973159,,0.0,0.0,0.0,0.0,0.0,0.0,0.0,0.0,0.0,0.0,0.0,0.0,0.0,-0.06406643241643906,0.017161265015602112,-0.09113825112581253,0.0,0.0,0.0,0.0,0.0,0.0,0.0,0.0,0.0,0.12564103305339813,-0.2297435998916626,9.333333015441895,0.0,0.0,0.0,0.0,0.0,0.0,0.0,0.0,0.0
1646351171.2705193,7366,1646351171,270179519,,0.0,0.0,0.0,0.0,0.0,0.0,0.0,0.0,0.0,0.0,0.0,0.0,0.0,-0.05554432049393654,0.008639149367809296,-0.09646457433700562,0.0,0.0,0.0,0.0,0.0,0.0,0.0,0.0,0.0,0.0735897421836853,-0.20102564990520477,9.342308044433594,0.0,0.0,0.0,0.0,0.0,0.0,0.0,0.0,0.0
1646351171.2727885,7367,1646351171,272442280,,0.0,0.0,0.0,0.0,0.0,0.0,0.0,0.0,0.0,0.0,0.0,0.0,0.0,-0.042761147022247314,0.020357057452201843,-0.07728981226682663,0.0,0.0,0.0,0.0,0.0,0.0,0.0,0.0,0.0,0.10410256683826447,0.012564103119075298,9.670769691467285,0.0,0.0,0.0,0.0,0.0,0.0,0.0,0.0,0.0
1646351171.2751336,7368,1646351171,274684928,,0.0,0.0,0.0,0.0,0.0,0.0,0.0,0.0,0.0,0.0,0.0,0.0,0.0,-0.04915273189544678,0.04379286989569664,-0.09966036677360535,0.0,0.0,0.0,0.0,0.0,0.0,0.0,0.0,0.0,0.05025641247630119,-0.012564103119075298,10.038718223571777,0.0,0.0,0.0,0.0,0.0,0.0,0.0,0.0,0.0
1646351171.2772052,7369,1646351171,276894656,,0.0,0.0,0.0,0.0,0.0,0.0,0.0,0.0,0.0,0.0,0.0,0.0,0.0,-0.04702220484614372,0.012900206260383129,-0.08900772035121918,0.0,0.0,0.0,0.0,0.0,0.0,0.0,0.0,0.0,-0.21358974277973175,-0.12025640904903412,9.94538402557373,0.0,0.0,0.0,0.0,0.0,0.0,0.0,0.0,0.0
1646351171.2796452,7370,1646351171,279121282,,0.0,0.0,0.0,0.0,0.0,0.0,0.0,0.0,0.0,0.0,0.0,0.0,0.0,-0.018260065466165543,0.02461811527609825,-0.12203092128038406,0.0,0.0,0.0,0.0,0.0,0.0,0.0,0.0,0.0,-0.27282050251960754,0.24589744210243225,10.482051849365234,0.0,0.0,0.0,0.0,0.0,0.0,0.0,0.0,0.0
1646351171.2830658,7371,1646351171,281338852,,0.0,0.0,0.0,0.0,0.0,0.0,0.0,0.0,0.0,0.0,0.0,0.0,0.0,-0.05447905510663986,0.009704413823783398,-0.09326878190040588,0.0,0.0,0.0,0.0,0.0,0.0,0.0,0.0,0.0,-0.2117948830127716,-0.15256410837173462,9.886154174804688,0.0,0.0,0.0,0.0,0.0,0.0,0.0,0.0,0.0
1646351171.2838888,7372,1646351171,283570047,,0.0,0.0,0.0,0.0,0.0,0.0,0.0,0.0,0.0,0.0,0.0,0.0,0.0,-0.02252112329006195,0.031009702011942863,-0.09433404356241226,0.0,0.0,0.0,0.0,0.0,0.0,0.0,0.0,0.0,-0.24051281809806824,-0.15435898303985596,9.902307510375977,0.0,0.0,0.0,0.0,0.0,0.0,0.0,0.0,0.0
1646351171.2861621,7373,1646351171,285819002,,0.0,0.0,0.0,0.0,0.0,0.0,0.0,0.0,0.0,0.0,0.0,0.0,0.0,-0.03530430048704147,0.02461811527609825,-0.11350880563259125,0.0,0.0,0.0,0.0,0.0,0.0,0.0,0.0,0.0,-0.09871795028448105,0.03410256281495094,9.64923095703125,0.0,0.0,0.0,0.0,0.0,0.0,0.0,0.0,0.0
1646351171.288503,7374,1646351171,288116521,,0.0,0.0,0.0,0.0,0.0,0.0,0.0,0.0,0.0,0.0,0.0,0.0,0.0,-0.020390594378113747,0.022487586364150047,-0.10072562843561172,0.0,0.0,0.0,0.0,0.0,0.0,0.0,0.0,0.0,0.12923076748847961,-0.012564103119075298,9.365640640258789,0.0,0.0,0.0,0.0,0.0,0.0,0.0,0.0,0.0
1646351171.290785,7375,1646351171,290390931,,0.0,0.0,0.0,0.0,0.0,0.0,0.0,0.0,0.0,0.0,0.0,0.0,0.0,-0.0342390350997448,0.010769677348434925,-0.13055303692817688,0.0,0.0,0.0,0.0,0.0,0.0,0.0,0.0,0.0,-0.3482051491737366,0.20820513367652893,10.151795387268066,0.0,0.0,0.0,0.0,0.0,0.0,0.0,0.0,0.0
1646351171.293063,7376,1646351171,292658279,,0.0,0.0,0.0,0.0,0.0,0.0,0.0,0.0,0.0,0.0,0.0,0.0,0.0,-0.00654215831309557,0.034205492585897446,-0.10498668998479843,0.0,0.0,0.0,0.0,0.0,0.0,0.0,0.0,0.0,-0.032307691872119904,-0.28179487586021423,9.428462028503418,0.0,0.0,0.0,0.0,0.0,0.0,0.0,0.0,0.0
1646351171.2952604,7377,1646351171,294864131,,0.0,0.0,0.0,0.0,0.0,0.0,0.0,0.0,0.0,0.0,0.0,0.0,0.0,-0.005476894788444042,0.03207496553659439,-0.11350880563259125,0.0,0.0,0.0,0.0,0.0,0.0,0.0,0.0,0.0,-0.25846153497695923,0.08615384995937347,10.029743194580078,0.0,0.0,0.0,0.0,0.0,0.0,0.0,0.0,0.0
1646351171.298449,7378,1646351171,297324491,,0.0,0.0,0.0,0.0,0.0,0.0,0.0,0.0,0.0,0.0,0.0,0.0,0.0,-0.002281100954860449,0.029944438487291336,-0.11244353652000427,0.0,0.0,0.0,0.0,0.0,0.0,0.0,0.0,0.0,0.18487180769443512,-0.2028205245733261,9.44282054901123,0.0,0.0,0.0,0.0,0.0,0.0,0.0,0.0,0.0
1646351171.2998455,7379,1646351171,299519642,,0.0,0.0,0.0,0.0,0.0,0.0,0.0,0.0,0.0,0.0,0.0,0.0,0.0,-0.00015057262498885393,0.038466550409793854,-0.10605195164680481,0.0,0.0,0.0,0.0,0.0,0.0,0.0,0.0,0.0,-0.33384618163108826,0.0412820540368557,9.846667289733887,0.0,0.0,0.0,0.0,0.0,0.0,0.0,0.0,0.0
1646351171.3020196,7380,1646351171,301717564,,0.0,0.0,0.0,0.0,0.0,0.0,0.0,0.0,0.0,0.0,0.0,0.0,0.0,-0.010803216136991978,0.0363360196352005,-0.1337488293647766,0.0,0.0,0.0,0.0,0.0,0.0,0.0,0.0,0.0,0.16871795058250427,-0.003589743748307228,9.728204727172852,0.0,0.0,0.0,0.0,0.0,0.0,0.0,0.0,0.0
1646351171.3042848,7381,1646351171,303928955,,0.0,0.0,0.0,0.0,0.0,0.0,0.0,0.0,0.0,0.0,0.0,0.0,0.0,0.0030452206265181303,0.04059707745909691,-0.11990039050579071,0.0,0.0,0.0,0.0,0.0,0.0,0.0,0.0,0.0,-0.09333333373069763,-0.17230769991874695,9.265128135681152,0.0,0.0,0.0,0.0,0.0,0.0,0.0,0.0,0.0
1646351171.306522,7382,1646351171,306145339,,0.0,0.0,0.0,0.0,0.0,0.0,0.0,0.0,0.0,0.0,0.0,0.0,0.0,0.022219980135560036,0.00224756239913404,-0.14227093756198883,0.0,0.0,0.0,0.0,0.0,0.0,0.0,0.0,0.0,-0.12923076748847961,-0.044871795922517776,9.932821273803711,0.0,0.0,0.0,0.0,0.0,0.0,0.0,0.0,0.0
1646351171.308857,7383,1646351171,308411458,,0.0,0.0,0.0,0.0,0.0,0.0,0.0,0.0,0.0,0.0,0.0,0.0,0.0,0.013697865419089794,0.006508619990199804,-0.10818248242139816,0.0,0.0,0.0,0.0,0.0,0.0,0.0,0.0,0.0,-0.3769230842590332,-0.12923076748847961,9.95974349975586,0.0,0.0,0.0,0.0,0.0,0.0,0.0,0.0,0.0
1646351171.3110397,7384,1646351171,310613939,,0.0,0.0,0.0,0.0,0.0,0.0,0.0,0.0,0.0,0.0,0.0,0.0,0.0,0.015828393399715424,0.011834941804409027,-0.13268356025218964,0.0,0.0,0.0,0.0,0.0,0.0,0.0,0.0,0.0,-0.07000000029802322,0.3858974575996399,10.23794937133789,0.0,0.0,0.0,0.0,0.0,0.0,0.0,0.0,0.0
1646351171.3132434,7385,1646351171,312874497,,0.0,0.0,0.0,0.0,0.0,0.0,0.0,0.0,0.0,0.0,0.0,0.0,0.0,0.01689365692436695,0.020357057452201843,-0.13694462180137634,0.0,0.0,0.0,0.0,0.0,0.0,0.0,0.0,0.0,0.05205128341913223,-0.15974359214305878,9.796409606933594,0.0,0.0,0.0,0.0,0.0,0.0,0.0,0.0,0.0
1646351171.3156388,7386,1646351171,315134893,,0.0,0.0,0.0,0.0,0.0,0.0,0.0,0.0,0.0,0.0,0.0,0.0,0.0,0.02008945122361183,0.007573884446173906,-0.14014041423797607,0.0,0.0,0.0,0.0,0.0,0.0,0.0,0.0,0.0,-0.09871795028448105,0.44871795177459717,9.75333309173584,0.0,0.0,0.0,0.0,0.0,0.0,0.0,0.0,0.0
1646351171.317766,7387,1646351171,317340428,,0.0,0.0,0.0,0.0,0.0,0.0,0.0,0.0,0.0,0.0,0.0,0.0,0.0,-0.00015057262498885393,0.012900206260383129,-0.12842249870300293,0.0,0.0,0.0,0.0,0.0,0.0,0.0,0.0,0.0,0.24230769276618958,-0.5330769419670105,9.216666221618652,0.0,0.0,0.0,0.0,0.0,0.0,0.0,0.0,0.0
1646351171.3199987,7388,1646351171,319544939,,0.0,0.0,0.0,0.0,0.0,0.0,0.0,0.0,0.0,0.0,0.0,0.0,0.0,-0.0012158364988863468,0.010769677348434925,-0.1390751451253891,0.0,0.0,0.0,0.0,0.0,0.0,0.0,0.0,0.0,-0.2153846174478531,-0.3410256505012512,9.39794921875,0.0,0.0,0.0,0.0,0.0,0.0,0.0,0.0,0.0
1646351171.32209,7389,1646351171,321746335,,0.0,0.0,0.0,0.0,0.0,0.0,0.0,0.0,0.0,0.0,0.0,0.0,0.0,-0.00441163033246994,0.009704413823783398,-0.14546672999858856,0.0,0.0,0.0,0.0,0.0,0.0,0.0,0.0,0.0,0.18666666746139526,-0.15794873237609863,9.493077278137207,0.0,0.0,0.0,0.0,0.0,0.0,0.0,0.0,0.0
1646351171.3246524,7390,1646351171,324053611,,0.0,0.0,0.0,0.0,0.0,0.0,0.0,0.0,0.0,0.0,0.0,0.0,0.0,0.026481037959456444,0.00224756239913404,-0.14227093756198883,0.0,0.0,0.0,0.0,0.0,0.0,0.0,0.0,0.0,0.19025641679763794,-0.32487180829048157,9.274102210998535,0.0,0.0,0.0,0.0,0.0,0.0,0.0,0.0,0.0
1646351171.3265975,7391,1646351171,326268565,,0.0,0.0,0.0,0.0,0.0,0.0,0.0,0.0,0.0,0.0,0.0,0.0,0.0,0.017958922311663628,0.016095999628305435,-0.12309618294239044,0.0,0.0,0.0,0.0,0.0,0.0,0.0,0.0,0.0,0.14538460969924927,0.2764102518558502,9.819743156433105,0.0,0.0,0.0,0.0,0.0,0.0,0.0,0.0,0.0
1646351171.3288484,7392,1646351171,328506556,,0.0,0.0,0.0,0.0,0.0,0.0,0.0,0.0,0.0,0.0,0.0,0.0,0.0,0.029676830396056175,0.00224756239913404,-0.12842249870300293,0.0,0.0,0.0,0.0,0.0,0.0,0.0,0.0,0.0,-0.10051282495260239,0.06282051652669907,9.817949295043945,0.0,0.0,0.0,0.0,0.0,0.0,0.0,0.0,0.0
1646351171.3310916,7393,1646351171,330719938,,0.0,0.0,0.0,0.0,0.0,0.0,0.0,0.0,0.0,0.0,0.0,0.0,0.0,0.03180735930800438,-0.02118825353682041,-0.13587935268878937,0.0,0.0,0.0,0.0,0.0,0.0,0.0,0.0,0.0,-0.16333334147930145,0.012564103119075298,9.891538619995117,0.0,0.0,0.0,0.0,0.0,0.0,0.0,0.0,0.0
1646351171.333366,7394,1646351171,332968406,,0.0,0.0,0.0,0.0,0.0,0.0,0.0,0.0,0.0,0.0,0.0,0.0,0.0,0.06376528739929199,0.008639149367809296,-0.16996781527996063,0.0,0.0,0.0,0.0,0.0,0.0,0.0,0.0,0.0,-0.2620512843132019,0.15256410837173462,10.227179527282715,0.0,0.0,0.0,0.0,0.0,0.0,0.0,0.0,0.0
1646351171.3367193,7395,1646351171,335179461,,0.0,0.0,0.0,0.0,0.0,0.0,0.0,0.0,0.0,0.0,0.0,0.0,0.0,0.04991685226559639,-0.0009482299210503697,-0.13055303692817688,0.0,0.0,0.0,0.0,0.0,0.0,0.0,0.0,0.0,-0.2387179583311081,-0.05025641247630119,9.706666946411133,0.0,0.0,0.0,0.0,0.0,0.0,0.0,0.0,0.0
1646351171.337701,7396,1646351171,337387985,,0.0,0.0,0.0,0.0,0.0,0.0,0.0,0.0,0.0,0.0,0.0,0.0,0.0,0.040329474955797195,-0.012666137889027596,-0.16890254616737366,0.0,0.0,0.0,0.0,0.0,0.0,0.0,0.0,0.0,0.24589744210243225,0.3069230914115906,9.853845596313477,0.0,0.0,0.0,0.0,0.0,0.0,0.0,0.0,0.0
1646351171.3399234,7397,1646351171,339575447,,0.0,0.0,0.0,0.0,0.0,0.0,0.0,0.0,0.0,0.0,0.0,0.0,0.0,0.05311264470219612,-0.015861930325627327,-0.14653199911117554,0.0,0.0,0.0,0.0,0.0,0.0,0.0,0.0,0.0,0.2028205245733261,0.028717949986457825,9.767691612243652,0.0,0.0,0.0,0.0,0.0,0.0,0.0,0.0,0.0
1646351171.3421595,7398,1646351171,341801049,,0.0,0.0,0.0,0.0,0.0,0.0,0.0,0.0,0.0,0.0,0.0,0.0,0.0,0.030742093920707703,-0.0009482299210503697,-0.12629197537899017,0.0,0.0,0.0,0.0,0.0,0.0,0.0,0.0,0.0,-0.19923077523708344,0.048461541533470154,9.952564239501953,0.0,0.0,0.0,0.0,0.0,0.0,0.0,0.0,0.0
1646351171.344351,7399,1646351171,343994874,,0.0,0.0,0.0,0.0,0.0,0.0,0.0,0.0,0.0,0.0,0.0,0.0,0.0,0.04885159060359001,-0.0020134944934397936,-0.1433362066745758,0.0,0.0,0.0,0.0,0.0,0.0,0.0,0.0,0.0,-0.31051284074783325,0.16153846681118011,10.234358787536621,0.0,0.0,0.0,0.0,0.0,0.0,0.0,0.0,0.0
1646351171.3466535,7400,1646351171,346251806,,0.0,0.0,0.0,0.0,0.0,0.0,0.0,0.0,0.0,0.0,0.0,0.0,0.0,0.03180735930800438,0.006508619990199804,-0.10605195164680481,0.0,0.0,0.0,0.0,0.0,0.0,0.0,0.0,0.0,0.07000000029802322,-0.014358974993228912,9.913077354431152,0.0,0.0,0.0,0.0,0.0,0.0,0.0,0.0,0.0
1646351171.3489397,7401,1646351171,348533419,,0.0,0.0,0.0,0.0,0.0,0.0,0.0,0.0,0.0,0.0,0.0,0.0,0.0,0.025415774434804916,0.00224756239913404,-0.12416144460439682,0.0,0.0,0.0,0.0,0.0,0.0,0.0,0.0,0.0,-0.11666666716337204,0.2925640940666199,10.065641403198242,0.0,0.0,0.0,0.0,0.0,0.0,0.0,0.0,0.0
1646351171.3512886,7402,1646351171,350855976,,0.0,0.0,0.0,0.0,0.0,0.0,0.0,0.0,0.0,0.0,0.0,0.0,0.0,0.02008945122361183,-0.009470346383750439,-0.12309618294239044,0.0,0.0,0.0,0.0,0.0,0.0,0.0,0.0,0.0,0.2656410336494446,-0.17589744925498962,9.721025466918945,0.0,0.0,0.0,0.0,0.0,0.0,0.0,0.0,0.0
1646351171.3535767,7403,1646351171,353160997,,0.0,0.0,0.0,0.0,0.0,0.0,0.0,0.0,0.0,0.0,0.0,0.0,0.0,-0.00015057262498885393,0.012900206260383129,-0.16783729195594788,0.0,0.0,0.0,0.0,0.0,0.0,0.0,0.0,0.0,0.18666666746139526,-0.03410256281495094,9.588204383850098,0.0,0.0,0.0,0.0,0.0,0.0,0.0,0.0,0.0
1646351171.3558252,7404,1646351171,355417020,,0.0,0.0,0.0,0.0,0.0,0.0,0.0,0.0,0.0,0.0,0.0,0.0,0.0,-0.018260065466165543,0.00011703448399202898,-0.13694462180137634,0.0,0.0,0.0,0.0,0.0,0.0,0.0,0.0,0.0,-0.08435897529125214,-0.1974359005689621,9.629487037658691,0.0,0.0,0.0,0.0,0.0,0.0,0.0,0.0,0.0
1646351171.35814,7405,1646351171,357652127,,0.0,0.0,0.0,0.0,0.0,0.0,0.0,0.0,0.0,0.0,0.0,0.0,0.0,-0.02678218111395836,0.025683380663394928,-0.11031300574541092,0.0,0.0,0.0,0.0,0.0,0.0,0.0,0.0,0.0,-0.005384615622460842,-0.2997435927391052,9.378205299377441,0.0,0.0,0.0,0.0,0.0,0.0,0.0,0.0,0.0
1646351171.3605795,7406,1646351171,359864039,,0.0,0.0,0.0,0.0,0.0,0.0,0.0,0.0,0.0,0.0,0.0,0.0,0.0,-0.02571691758930683,0.008639149367809296,-0.16464149951934814,0.0,0.0,0.0,0.0,0.0,0.0,0.0,0.0,0.0,-0.19205129146575928,-0.01974359154701233,9.853845596313477,0.0,0.0,0.0,0.0,0.0,0.0,0.0,0.0,0.0
1646351171.3624318,7407,1646351171,362059010,,0.0,0.0,0.0,0.0,0.0,0.0,0.0,0.0,0.0,0.0,0.0,0.0,0.0,-0.02678218111395836,-0.003078758716583252,-0.13800989091396332,0.0,0.0,0.0,0.0,0.0,0.0,0.0,0.0,0.0,-0.41641026735305786,-0.11307692527770996,10.232563972473145,0.0,0.0,0.0,0.0,0.0,0.0,0.0,0.0,0.0
1646351171.3645597,7408,1646351171,364246437,,0.0,0.0,0.0,0.0,0.0,0.0,0.0,0.0,0.0,0.0,0.0,0.0,0.0,-0.028912710025906563,0.016095999628305435,-0.16038043797016144,0.0,0.0,0.0,0.0,0.0,0.0,0.0,0.0,0.0,-0.2117948830127716,0.005384615622460842,10.184102058410645,0.0,0.0,0.0,0.0,0.0,0.0,0.0,0.0,0.0
1646351171.3667796,7409,1646351171,366459060,,0.0,0.0,0.0,0.0,0.0,0.0,0.0,0.0,0.0,0.0,0.0,0.0,0.0,-0.018260065466165543,0.023552851751446724,-0.1614457070827484,0.0,0.0,0.0,0.0,0.0,0.0,0.0,0.0,0.0,0.06820512562990189,-0.06820512562990189,10.05128288269043,0.0,0.0,0.0,0.0,0.0,0.0,0.0,0.0,0.0
1646351171.3689997,7410,1646351171,368685895,,0.0,0.0,0.0,0.0,0.0,0.0,0.0,0.0,0.0,0.0,0.0,0.0,0.0,-0.013999010436236858,0.016095999628305435,-0.16783729195594788,0.0,0.0,0.0,0.0,0.0,0.0,0.0,0.0,0.0,-0.05025641247630119,0.1058974415063858,10.011795043945312,0.0,0.0,0.0,0.0,0.0,0.0,0.0,0.0,0.0
1646351171.3711174,7411,1646351171,370921307,,0.0,0.0,0.0,0.0,0.0,0.0,0.0,0.0,0.0,0.0,0.0,0.0,0.0,-0.013999010436236858,0.04379286989569664,-0.12629197537899017,0.0,0.0,0.0,0.0,0.0,0.0,0.0,0.0,0.0,-0.1561538577079773,-0.21000000834465027,10.094359397888184,0.0,0.0,0.0,0.0,0.0,0.0,0.0,0.0,0.0
1646351171.3735876,7412,1646351171,373178945,,0.0,0.0,0.0,0.0,0.0,0.0,0.0,0.0,0.0,0.0,0.0,0.0,0.0,-0.005476894788444042,-0.006274553015828133,-0.19340361654758453,0.0,0.0,0.0,0.0,0.0,0.0,0.0,0.0,0.0,-0.2656410336494446,0.19025641679763794,10.026153564453125,0.0,0.0,0.0,0.0,0.0,0.0,0.0,0.0,0.0
1646351171.375682,7413,1646351171,375378388,,0.0,0.0,0.0,0.0,0.0,0.0,0.0,0.0,0.0,0.0,0.0,0.0,0.0,0.009436807595193386,0.026748644188046455,-0.16038043797016144,0.0,0.0,0.0,0.0,0.0,0.0,0.0,0.0,0.0,0.010769231244921684,0.07179487496614456,9.604358673095703,0.0,0.0,0.0,0.0,0.0,0.0,0.0,0.0,0.0
1646351171.3794343,7414,1646351171,377619341,,0.0,0.0,0.0,0.0,0.0,0.0,0.0,0.0,0.0,0.0,0.0,0.0,0.0,-0.00015057262498885393,0.009704413823783398,-0.14440147578716278,0.0,0.0,0.0,0.0,0.0,0.0,0.0,0.0,0.0,-0.25487178564071655,-0.1058974415063858,9.721025466918945,0.0,0.0,0.0,0.0,0.0,0.0,0.0,0.0,0.0
1646351171.3801267,7415,1646351171,379851963,,0.0,0.0,0.0,0.0,0.0,0.0,0.0,0.0,0.0,0.0,0.0,0.0,0.0,0.01689365692436695,0.035270754247903824,-0.17316359281539917,0.0,0.0,0.0,0.0,0.0,0.0,0.0,0.0,0.0,0.1238461583852768,-0.005384615622460842,9.819743156433105,0.0,0.0,0.0,0.0,0.0,0.0,0.0,0.0,0.0
1646351171.3825042,7416,1646351171,382081819,,0.0,0.0,0.0,0.0,0.0,0.0,0.0,0.0,0.0,0.0,0.0,0.0,0.0,0.006241013761609793,0.034205492585897446,-0.1625109612941742,0.0,0.0,0.0,0.0,0.0,0.0,0.0,0.0,0.0,-0.07897436618804932,-0.4092307686805725,9.128717422485352,0.0,0.0,0.0,0.0,0.0,0.0,0.0,0.0,0.0
1646351171.38459,7417,1646351171,384289606,,0.0,0.0,0.0,0.0,0.0,0.0,0.0,0.0,0.0,0.0,0.0,0.0,0.0,0.0030452206265181303,0.019291793927550316,-0.16996781527996063,0.0,0.0,0.0,0.0,0.0,0.0,0.0,0.0,0.0,0.02153846248984337,-0.09333333373069763,9.719230651855469,0.0,0.0,0.0,0.0,0.0,0.0,0.0,0.0,0.0
1646351171.3868258,7418,1646351171,386507345,,0.0,0.0,0.0,0.0,0.0,0.0,0.0,0.0,0.0,0.0,0.0,0.0,0.0,0.008371543139219284,0.025683380663394928,-0.14227093756198883,0.0,0.0,0.0,0.0,0.0,0.0,0.0,0.0,0.0,0.18487180769443512,-0.1328205168247223,9.521795272827148,0.0,0.0,0.0,0.0,0.0,0.0,0.0,0.0,0.0
1646351171.389165,7419,1646351171,388774800,,0.0,0.0,0.0,0.0,0.0,0.0,0.0,0.0,0.0,0.0,0.0,0.0,0.0,-0.010803216136991978,0.013965470716357231,-0.1390751451253891,0.0,0.0,0.0,0.0,0.0,0.0,0.0,0.0,0.0,0.21000000834465027,0.14000000059604645,9.733589172363281,0.0,0.0,0.0,0.0,0.0,0.0,0.0,0.0,0.0
1646351171.3913882,7420,1646351171,391062527,,0.0,0.0,0.0,0.0,0.0,0.0,0.0,0.0,0.0,0.0,0.0,0.0,0.0,-0.009737951681017876,0.020357057452201843,-0.14227093756198883,0.0,0.0,0.0,0.0,0.0,0.0,0.0,0.0,0.0,0.016153845936059952,0.07717949151992798,9.859230041503906,0.0,0.0,0.0,0.0,0.0,0.0,0.0,0.0,0.0
1646351171.3938432,7421,1646351171,393333634,,0.0,0.0,0.0,0.0,0.0,0.0,0.0,0.0,0.0,0.0,0.0,0.0,0.0,-0.01186848059296608,0.035270754247903824,-0.1433362066745758,0.0,0.0,0.0,0.0,0.0,0.0,0.0,0.0,0.0,-0.17230769991874695,0.2207692414522171,9.916666030883789,0.0,0.0,0.0,0.0,0.0,0.0,0.0,0.0,0.0
1646351171.3959088,7422,1646351171,395537284,,0.0,0.0,0.0,0.0,0.0,0.0,0.0,0.0,0.0,0.0,0.0,0.0,0.0,0.008371543139219284,0.011834941804409027,-0.15505412220954895,0.0,0.0,0.0,0.0,0.0,0.0,0.0,0.0,0.0,-0.15256410837173462,0.0412820540368557,10.144615173339844,0.0,0.0,0.0,0.0,0.0,0.0,0.0,0.0,0.0
1646351171.3981137,7423,1646351171,397797639,,0.0,0.0,0.0,0.0,0.0,0.0,0.0,0.0,0.0,0.0,0.0,0.0,0.0,0.02754630148410797,0.010769677348434925,-0.13055303692817688,0.0,0.0,0.0,0.0,0.0,0.0,0.0,0.0,0.0,-0.17769230902194977,-0.3625641167163849,9.505640983581543,0.0,0.0,0.0,0.0,0.0,0.0,0.0,0.0,0.0
1646351171.400389,7424,1646351171,400030169,,0.0,0.0,0.0,0.0,0.0,0.0,0.0,0.0,0.0,0.0,0.0,0.0,0.0,0.008371543139219284,0.011834941804409027,-0.15931516885757446,0.0,0.0,0.0,0.0,0.0,0.0,0.0,0.0,0.0,0.09153846651315689,0.21897436678409576,9.764102935791016,0.0,0.0,0.0,0.0,0.0,0.0,0.0,0.0,0.0
1646351171.402458,7425,1646351171,402182014,,0.0,0.0,0.0,0.0,0.0,0.0,0.0,0.0,0.0,0.0,0.0,0.0,0.0,0.029676830396056175,0.010769677348434925,-0.15398885309696198,0.0,0.0,0.0,0.0,0.0,0.0,0.0,0.0,0.0,-0.014358974993228912,-0.01794871874153614,9.839487075805664,0.0,0.0,0.0,0.0,0.0,0.0,0.0,0.0,0.0
1646351171.4047565,7426,1646351171,404408691,,0.0,0.0,0.0,0.0,0.0,0.0,0.0,0.0,0.0,0.0,0.0,0.0,0.0,0.01689365692436695,0.019291793927550316,-0.152923583984375,0.0,0.0,0.0,0.0,0.0,0.0,0.0,0.0,0.0,-0.2656410336494446,0.21897436678409576,10.099743843078613,0.0,0.0,0.0,0.0,0.0,0.0,0.0,0.0,0.0
1646351171.4072945,7427,1646351171,406722162,,0.0,0.0,0.0,0.0,0.0,0.0,0.0,0.0,0.0,0.0,0.0,0.0,0.0,0.04352526739239693,0.013965470716357231,-0.15505412220954895,0.0,0.0,0.0,0.0,0.0,0.0,0.0,0.0,0.0,-0.23512820899486542,-0.05384615436196327,10.06384563446045,0.0,0.0,0.0,0.0,0.0,0.0,0.0,0.0,0.0
1646351171.4094636,7428,1646351171,409060591,,0.0,0.0,0.0,0.0,0.0,0.0,0.0,0.0,0.0,0.0,0.0,0.0,0.0,0.01156733650714159,0.034205492585897446,-0.14227093756198883,0.0,0.0,0.0,0.0,0.0,0.0,0.0,0.0,0.0,-0.08076923340559006,-0.3769230842590332,9.767691612243652,0.0,0.0,0.0,0.0,0.0,0.0,0.0,0.0,0.0
1646351171.4116414,7429,1646351171,411306311,,0.0,0.0,0.0,0.0,0.0,0.0,0.0,0.0,0.0,0.0,0.0,0.0,0.0,0.04885159060359001,0.02887917309999466,-0.1944688856601715,0.0,0.0,0.0,0.0,0.0,0.0,0.0,0.0,0.0,0.2064102590084076,-0.31589746475219727,9.405128479003906,0.0,0.0,0.0,0.0,0.0,0.0,0.0,0.0,0.0
1646351171.414431,7430,1646351171,413559840,,0.0,0.0,0.0,0.0,0.0,0.0,0.0,0.0,0.0,0.0,0.0,0.0,0.0,0.04352526739239693,0.034205492585897446,-0.16996781527996063,0.0,0.0,0.0,0.0,0.0,0.0,0.0,0.0,0.0,0.3858974575996399,-0.36974361538887024,9.410512924194336,0.0,0.0,0.0,0.0,0.0,0.0,0.0,0.0,0.0
1646351171.4160638,7431,1646351171,415787489,,0.0,0.0,0.0,0.0,0.0,0.0,0.0,0.0,0.0,0.0,0.0,0.0,0.0,0.029676830396056175,0.041662342846393585,-0.17422886192798615,0.0,0.0,0.0,0.0,0.0,0.0,0.0,0.0,0.0,0.07717949151992798,-0.0825641080737114,9.383589744567871,0.0,0.0,0.0,0.0,0.0,0.0,0.0,0.0,0.0
1646351171.4183724,7432,1646351171,418029341,,0.0,0.0,0.0,0.0,0.0,0.0,0.0,0.0,0.0,0.0,0.0,0.0,0.0,0.052047379314899445,0.04592340067028999,-0.17529411613941193,0.0,0.0,0.0,0.0,0.0,0.0,0.0,0.0,0.0,0.05743589997291565,-0.3733333349227905,9.469743728637695,0.0,0.0,0.0,0.0,0.0,0.0,0.0,0.0,0.0
1646351171.4212248,7433,1646351171,420236681,,0.0,0.0,0.0,0.0,0.0,0.0,0.0,0.0,0.0,0.0,0.0,0.0,0.0,0.026481037959456444,0.055510785430669785,-0.1667720228433609,0.0,0.0,0.0,0.0,0.0,0.0,0.0,0.0,0.0,-0.31051284074783325,-0.003589743748307228,10.088973999023438,0.0,0.0,0.0,0.0,0.0,0.0,0.0,0.0,0.0
1646351171.4227314,7434,1646351171,422448239,,0.0,0.0,0.0,0.0,0.0,0.0,0.0,0.0,0.0,0.0,0.0,0.0,0.0,0.03819894418120384,0.05444552004337311,-0.15185831487178802,0.0,0.0,0.0,0.0,0.0,0.0,0.0,0.0,0.0,-0.2620512843132019,-0.2297435998916626,9.835898399353027,0.0,0.0,0.0,0.0,0.0,0.0,0.0,0.0,0.0
1646351171.425124,7435,1646351171,424706636,,0.0,0.0,0.0,0.0,0.0,0.0,0.0,0.0,0.0,0.0,0.0,0.0,0.0,0.04885159060359001,0.04485813528299332,-0.16783729195594788,0.0,0.0,0.0,0.0,0.0,0.0,0.0,0.0,0.0,-0.24948717653751373,-0.13641025125980377,9.816153526306152,0.0,0.0,0.0,0.0,0.0,0.0,0.0,0.0,0.0
1646351171.427376,7436,1646351171,426978245,,0.0,0.0,0.0,0.0,0.0,0.0,0.0,0.0,0.0,0.0,0.0,0.0,0.0,0.03287262097001076,0.0640328973531723,-0.18701203167438507,0.0,0.0,0.0,0.0,0.0,0.0,0.0,0.0,0.0,-0.21897436678409576,0.046666666865348816,9.995640754699707,0.0,0.0,0.0,0.0,0.0,0.0,0.0,0.0,0.0
1646351171.4296634,7437,1646351171,429250123,,0.0,0.0,0.0,0.0,0.0,0.0,0.0,0.0,0.0,0.0,0.0,0.0,0.0,0.009436807595193386,0.04698866978287697,-0.16783729195594788,0.0,0.0,0.0,0.0,0.0,0.0,0.0,0.0,0.0,-0.22435897588729858,-0.08794872462749481,9.625897407531738,0.0,0.0,0.0,0.0,0.0,0.0,0.0,0.0,0.0
1646351171.431873,7438,1646351171,431480384,,0.0,0.0,0.0,0.0,0.0,0.0,0.0,0.0,0.0,0.0,0.0,0.0,0.0,0.017958922311663628,0.03207496553659439,-0.16357623040676117,0.0,0.0,0.0,0.0,0.0,0.0,0.0,0.0,0.0,-0.06282051652669907,0.26923078298568726,9.93820571899414,0.0,0.0,0.0,0.0,0.0,0.0,0.0,0.0,0.0
1646351171.4341133,7439,1646351171,433733952,,0.0,0.0,0.0,0.0,0.0,0.0,0.0,0.0,0.0,0.0,0.0,0.0,0.0,0.01689365692436695,0.038466550409793854,-0.16464149951934814,0.0,0.0,0.0,0.0,0.0,0.0,0.0,0.0,0.0,-0.2710256576538086,0.09871795028448105,9.90410327911377,0.0,0.0,0.0,0.0,0.0,0.0,0.0,0.0,0.0
1646351171.4361963,7440,1646351171,435919820,,0.0,0.0,0.0,0.0,0.0,0.0,0.0,0.0,0.0,0.0,0.0,0.0,0.0,-0.00015057262498885393,0.04805393144488335,-0.1710330694913864,0.0,0.0,0.0,0.0,0.0,0.0,0.0,0.0,0.0,-0.1471794843673706,0.2997435927391052,10.031538009643555,0.0,0.0,0.0,0.0,0.0,0.0,0.0,0.0,0.0
1646351171.4384692,7441,1646351171,438123334,,0.0,0.0,0.0,0.0,0.0,0.0,0.0,0.0,0.0,0.0,0.0,0.0,0.0,0.01689365692436695,0.04698866978287697,-0.15611937642097473,0.0,0.0,0.0,0.0,0.0,0.0,0.0,0.0,0.0,-0.06641025841236115,0.001794871874153614,9.658205032348633,0.0,0.0,0.0,0.0,0.0,0.0,0.0,0.0,0.0
1646351171.440772,7442,1646351171,440456395,,0.0,0.0,0.0,0.0,0.0,0.0,0.0,0.0,0.0,0.0,0.0,0.0,0.0,0.02115471661090851,0.04059707745909691,-0.16357623040676117,0.0,0.0,0.0,0.0,0.0,0.0,0.0,0.0,0.0,-0.24948717653751373,0.12025640904903412,9.715641021728516,0.0,0.0,0.0,0.0,0.0,0.0,0.0,0.0,0.0
1646351171.4430966,7443,1646351171,442719547,,0.0,0.0,0.0,0.0,0.0,0.0,0.0,0.0,0.0,0.0,0.0,0.0,0.0,0.03500314801931381,0.026748644188046455,-0.16996781527996063,0.0,0.0,0.0,0.0,0.0,0.0,0.0,0.0,0.0,-0.08974359184503555,0.19205129146575928,9.843076705932617,0.0,0.0,0.0,0.0,0.0,0.0,0.0,0.0,0.0
1646351171.4453537,7444,1646351171,444920474,,0.0,0.0,0.0,0.0,0.0,0.0,0.0,0.0,0.0,0.0,0.0,0.0,0.0,0.019024187698960304,0.034205492585897446,-0.1667720228433609,0.0,0.0,0.0,0.0,0.0,0.0,0.0,0.0,0.0,-0.15794873237609863,-0.09333333373069763,9.29025650024414,0.0,0.0,0.0,0.0,0.0,0.0,0.0,0.0,0.0
1646351171.4475453,7445,1646351171,447192795,,0.0,0.0,0.0,0.0,0.0,0.0,0.0,0.0,0.0,0.0,0.0,0.0,0.0,0.02754630148410797,0.041662342846393585,-0.16996781527996063,0.0,0.0,0.0,0.0,0.0,0.0,0.0,0.0,0.0,0.10051282495260239,0.14358974993228912,9.823333740234375,0.0,0.0,0.0,0.0,0.0,0.0,0.0,0.0,0.0
1646351171.4497428,7446,1646351171,449424064,,0.0,0.0,0.0,0.0,0.0,0.0,0.0,0.0,0.0,0.0,0.0,0.0,0.0,0.01156733650714159,0.05444552004337311,-0.152923583984375,0.0,0.0,0.0,0.0,0.0,0.0,0.0,0.0,0.0,0.10948718339204788,-0.032307691872119904,9.690512657165527,0.0,0.0,0.0,0.0,0.0,0.0,0.0,0.0,0.0
1646351171.45196,7447,1646351171,451639171,,0.0,0.0,0.0,0.0,0.0,0.0,0.0,0.0,0.0,0.0,0.0,0.0,0.0,0.037133678793907166,0.008639149367809296,-0.17848992347717285,0.0,0.0,0.0,0.0,0.0,0.0,0.0,0.0,0.0,0.09512820839881897,0.3446153998374939,9.839487075805664,0.0,0.0,0.0,0.0,0.0,0.0,0.0,0.0,0.0
1646351171.454357,7448,1646351171,453867322,,0.0,0.0,0.0,0.0,0.0,0.0,0.0,0.0,0.0,0.0,0.0,0.0,0.0,0.007306278217583895,0.015030735172331333,-0.1859467625617981,0.0,0.0,0.0,0.0,0.0,0.0,0.0,0.0,0.0,-0.19564102590084076,0.22794872522354126,10.252307891845703,0.0,0.0,0.0,0.0,0.0,0.0,0.0,0.0,0.0
1646351171.457517,7449,1646351171,456170880,,0.0,0.0,0.0,0.0,0.0,0.0,0.0,0.0,0.0,0.0,0.0,0.0,0.0,0.0009146920638158917,0.04698866978287697,-0.14972779154777527,0.0,0.0,0.0,0.0,0.0,0.0,0.0,0.0,0.0,-0.12205128371715546,0.4038461744785309,10.176923751831055,0.0,0.0,0.0,0.0,0.0,0.0,0.0,0.0,0.0
1646351171.4587066,7450,1646351171,458406613,,0.0,0.0,0.0,0.0,0.0,0.0,0.0,0.0,0.0,0.0,0.0,0.0,0.0,-0.018260065466165543,0.052314989268779755,-0.18701203167438507,0.0,0.0,0.0,0.0,0.0,0.0,0.0,0.0,0.0,-0.2656410336494446,0.15076923370361328,10.447948455810547,0.0,0.0,0.0,0.0,0.0,0.0,0.0,0.0,0.0
1646351171.4610057,7451,1646351171,460636670,,0.0,0.0,0.0,0.0,0.0,0.0,0.0,0.0,0.0,0.0,0.0,0.0,0.0,-0.01932533085346222,0.04059707745909691,-0.1614457070827484,0.0,0.0,0.0,0.0,0.0,0.0,0.0,0.0,0.0,-0.32487180829048157,-0.1238461583852768,9.586410522460938,0.0,0.0,0.0,0.0,0.0,0.0,0.0,0.0,0.0
1646351171.4661791,7452,1646351171,462855840,,0.0,0.0,0.0,0.0,0.0,0.0,0.0,0.0,0.0,0.0,0.0,0.0,0.0,-0.01932533085346222,0.038466550409793854,-0.1571846455335617,0.0,0.0,0.0,0.0,0.0,0.0,0.0,0.0,0.0,0.05384615436196327,0.23333333432674408,9.873589515686035,0.0,0.0,0.0,0.0,0.0,0.0,0.0,0.0,0.0
1646351171.4662116,7453,1646351171,465096421,,0.0,0.0,0.0,0.0,0.0,0.0,0.0,0.0,0.0,0.0,0.0,0.0,0.0,-0.009737951681017876,0.04911919683218002,-0.152923583984375,0.0,0.0,0.0,0.0,0.0,0.0,0.0,0.0,0.0,-0.24948717653751373,-0.2117948830127716,10.05846118927002,0.0,0.0,0.0,0.0,0.0,0.0,0.0,0.0,0.0
1646351171.467617,7454,1646351171,467322027,,0.0,0.0,0.0,0.0,0.0,0.0,0.0,0.0,0.0,0.0,0.0,0.0,0.0,-0.042761147022247314,0.02887917309999466,-0.1902078241109848,0.0,0.0,0.0,0.0,0.0,0.0,0.0,0.0,0.0,-0.44692307710647583,0.26384615898132324,10.144615173339844,0.0,0.0,0.0,0.0,0.0,0.0,0.0,0.0,0.0
1646351171.4699166,7455,1646351171,469589569,,0.0,0.0,0.0,0.0,0.0,0.0,0.0,0.0,0.0,0.0,0.0,0.0,0.0,-0.009737951681017876,0.034205492585897446,-0.19233834743499756,0.0,0.0,0.0,0.0,0.0,0.0,0.0,0.0,0.0,-0.3212820589542389,0.16871795058250427,10.185897827148438,0.0,0.0,0.0,0.0,0.0,0.0,0.0,0.0,0.0
1646351171.4721625,7456,1646351171,471855205,,0.0,0.0,0.0,0.0,0.0,0.0,0.0,0.0,0.0,0.0,0.0,0.0,0.0,-0.02252112329006195,0.03207496553659439,-0.16783729195594788,0.0,0.0,0.0,0.0,0.0,0.0,0.0,0.0,0.0,-0.2207692414522171,-0.14179487526416779,9.64025592803955,0.0,0.0,0.0,0.0,0.0,0.0,0.0,0.0,0.0
1646351171.4744852,7457,1646351171,474170330,,0.0,0.0,0.0,0.0,0.0,0.0,0.0,0.0,0.0,0.0,0.0,0.0,0.0,-0.002281100954860449,0.026748644188046455,-0.20086047053337097,0.0,0.0,0.0,0.0,0.0,0.0,0.0,0.0,0.0,-0.12923076748847961,-0.09512820839881897,9.306410789489746,0.0,0.0,0.0,0.0,0.0,0.0,0.0,0.0,0.0
1646351171.4767091,7458,1646351171,476371162,,0.0,0.0,0.0,0.0,0.0,0.0,0.0,0.0,0.0,0.0,0.0,0.0,0.0,0.004110485315322876,0.020357057452201843,-0.1614457070827484,0.0,0.0,0.0,0.0,0.0,0.0,0.0,0.0,0.0,0.14538460969924927,-0.25128206610679626,9.231025695800781,0.0,0.0,0.0,0.0,0.0,0.0,0.0,0.0,0.0
1646351171.479133,7459,1646351171,478634128,,0.0,0.0,0.0,0.0,0.0,0.0,0.0,0.0,0.0,0.0,0.0,0.0,0.0,0.023285245522856712,0.038466550409793854,-0.18381623923778534,0.0,0.0,0.0,0.0,0.0,0.0,0.0,0.0,0.0,0.17230769991874695,0.032307691872119904,9.05512809753418,0.0,0.0,0.0,0.0,0.0,0.0,0.0,0.0,0.0
1646351171.4813406,7460,1646351171,480904088,,0.0,0.0,0.0,0.0,0.0,0.0,0.0,0.0,0.0,0.0,0.0,0.0,0.0,0.02754630148410797,0.04698866978287697,-0.18807730078697205,0.0,0.0,0.0,0.0,0.0,0.0,0.0,0.0,0.0,0.2387179583311081,-0.18128205835819244,9.263333320617676,0.0,0.0,0.0,0.0,0.0,0.0,0.0,0.0,0.0
1646351171.4833953,7461,1646351171,483108058,,0.0,0.0,0.0,0.0,0.0,0.0,0.0,0.0,0.0,0.0,0.0,0.0,0.0,0.04885159060359001,0.03314023092389107,-0.17742465436458588,0.0,0.0,0.0,0.0,0.0,0.0,0.0,0.0,0.0,-0.001794871874153614,0.3356410562992096,9.749743461608887,0.0,0.0,0.0,0.0,0.0,0.0,0.0,0.0,0.0
1646351171.48584,7462,1646351171,485368417,,0.0,0.0,0.0,0.0,0.0,0.0,0.0,0.0,0.0,0.0,0.0,0.0,0.0,0.050982117652893066,0.017161265015602112,-0.17955517768859863,0.0,0.0,0.0,0.0,0.0,0.0,0.0,0.0,0.0,0.06641025841236115,-0.09692308306694031,9.862820625305176,0.0,0.0,0.0,0.0,0.0,0.0,0.0,0.0,0.0
1646351171.4879947,7463,1646351171,487575645,,0.0,0.0,0.0,0.0,0.0,0.0,0.0,0.0,0.0,0.0,0.0,0.0,0.0,0.06589581817388535,0.04272760823369026,-0.16890254616737366,0.0,0.0,0.0,0.0,0.0,0.0,0.0,0.0,0.0,-0.3535897731781006,-0.032307691872119904,9.70846176147461,0.0,0.0,0.0,0.0,0.0,0.0,0.0,0.0,0.0
1646351171.490385,7464,1646351171,489847949,,0.0,0.0,0.0,0.0,0.0,0.0,0.0,0.0,0.0,0.0,0.0,0.0,0.0,0.08507058769464493,0.023552851751446724,-0.1433362066745758,0.0,0.0,0.0,0.0,0.0,0.0,0.0,0.0,0.0,-0.20102564990520477,0.1741025745868683,9.891538619995117,0.0,0.0,0.0,0.0,0.0,0.0,0.0,0.0,0.0
1646351171.492372,7465,1646351171,492054559,,0.0,0.0,0.0,0.0,0.0,0.0,0.0,0.0,0.0,0.0,0.0,0.0,0.0,0.0861358493566513,0.020357057452201843,-0.1763593852519989,0.0,0.0,0.0,0.0,0.0,0.0,0.0,0.0,0.0,0.023333333432674408,-0.07179487496614456,9.428462028503418,0.0,0.0,0.0,0.0,0.0,0.0,0.0,0.0,0.0
1646351171.4945652,7466,1646351171,494248531,,0.0,0.0,0.0,0.0,0.0,0.0,0.0,0.0,0.0,0.0,0.0,0.0,0.0,0.08400531858205795,0.008639149367809296,-0.17422886192798615,0.0,0.0,0.0,0.0,0.0,0.0,0.0,0.0,0.0,-0.10769230872392654,0.023333333432674408,9.782051086425781,0.0,0.0,0.0,0.0,0.0,0.0,0.0,0.0,0.0
1646351171.4968972,7467,1646351171,496477742,,0.0,0.0,0.0,0.0,0.0,0.0,0.0,0.0,0.0,0.0,0.0,0.0,0.0,0.08080952614545822,0.016095999628305435,-0.18381623923778534,0.0,0.0,0.0,0.0,0.0,0.0,0.0,0.0,0.0,0.33743590116500854,-0.32307693362236023,9.406923294067383,0.0,0.0,0.0,0.0,0.0,0.0,0.0,0.0,0.0
1646351171.4990628,7468,1646351171,498675546,,0.0,0.0,0.0,0.0,0.0,0.0,0.0,0.0,0.0,0.0,0.0,0.0,0.0,0.05630843713879585,0.009704413823783398,-0.1571846455335617,0.0,0.0,0.0,0.0,0.0,0.0,0.0,0.0,0.0,-0.16153846681118011,-0.001794871874153614,9.997435569763184,0.0,0.0,0.0,0.0,0.0,0.0,0.0,0.0,0.0
1646351171.5013323,7469,1646351171,500933324,,0.0,0.0,0.0,0.0,0.0,0.0,0.0,0.0,0.0,0.0,0.0,0.0,0.0,0.030742093920707703,0.011834941804409027,-0.17742465436458588,0.0,0.0,0.0,0.0,0.0,0.0,0.0,0.0,0.0,-0.2925640940666199,-0.06102564185857773,9.882563591003418,0.0,0.0,0.0,0.0,0.0,0.0,0.0,0.0,0.0
1646351171.503593,7470,1646351171,503196008,,0.0,0.0,0.0,0.0,0.0,0.0,0.0,0.0,0.0,0.0,0.0,0.0,0.0,0.029676830396056175,-0.009470346383750439,-0.17316359281539917,0.0,0.0,0.0,0.0,0.0,0.0,0.0,0.0,0.0,-0.10230769217014313,0.09153846651315689,9.636667251586914,0.0,0.0,0.0,0.0,0.0,0.0,0.0,0.0,0.0
1646351171.5067286,7471,1646351171,505391764,,0.0,0.0,0.0,0.0,0.0,0.0,0.0,0.0,0.0,0.0,0.0,0.0,0.0,0.006241013761609793,0.004378091543912888,-0.1720983237028122,0.0,0.0,0.0,0.0,0.0,0.0,0.0,0.0,0.0,-0.2997435927391052,0.05923077091574669,9.927435874938965,0.0,0.0,0.0,0.0,0.0,0.0,0.0,0.0,0.0
1646351171.5079455,7472,1646351171,507602770,,0.0,0.0,0.0,0.0,0.0,0.0,0.0,0.0,0.0,0.0,0.0,0.0,0.0,0.007306278217583895,-0.005209287628531456,-0.15185831487178802,0.0,0.0,0.0,0.0,0.0,0.0,0.0,0.0,0.0,-0.046666666865348816,-0.19384616613388062,9.629487037658691,0.0,0.0,0.0,0.0,0.0,0.0,0.0,0.0,0.0
1646351171.510122,7473,1646351171,509794228,,0.0,0.0,0.0,0.0,0.0,0.0,0.0,0.0,0.0,0.0,0.0,0.0,0.0,-0.008672687225043774,-0.010535608977079391,-0.1667720228433609,0.0,0.0,0.0,0.0,0.0,0.0,0.0,0.0,0.0,0.05564102530479431,0.07179487496614456,9.738973617553711,0.0,0.0,0.0,0.0,0.0,0.0,0.0,0.0,0.0
1646351171.512388,7474,1646351171,512044051,,0.0,0.0,0.0,0.0,0.0,0.0,0.0,0.0,0.0,0.0,0.0,0.0,0.0,-0.02252112329006195,0.006508619990199804,-0.1475972682237625,0.0,0.0,0.0,0.0,0.0,0.0,0.0,0.0,0.0,-0.22794872522354126,-0.14179487526416779,9.573845863342285,0.0,0.0,0.0,0.0,0.0,0.0,0.0,0.0,0.0
1646351171.5145967,7475,1646351171,514299762,,0.0,0.0,0.0,0.0,0.0,0.0,0.0,0.0,0.0,0.0,0.0,0.0,0.0,-0.02997797727584839,0.019291793927550316,-0.15185831487178802,0.0,0.0,0.0,0.0,0.0,0.0,0.0,0.0,0.0,-0.1884615421295166,0.19025641679763794,10.214615821838379,0.0,0.0,0.0,0.0,0.0,0.0,0.0,0.0,0.0
1646351171.5169494,7476,1646351171,516523325,,0.0,0.0,0.0,0.0,0.0,0.0,0.0,0.0,0.0,0.0,0.0,0.0,0.0,-0.01932533085346222,0.01822652854025364,-0.14227093756198883,0.0,0.0,0.0,0.0,0.0,0.0,0.0,0.0,0.0,-0.3410256505012512,0.14000000059604645,9.877179145812988,0.0,0.0,0.0,0.0,0.0,0.0,0.0,0.0,0.0
1646351171.5191917,7477,1646351171,518804903,,0.0,0.0,0.0,0.0,0.0,0.0,0.0,0.0,0.0,0.0,0.0,0.0,0.0,-0.032108504325151443,0.023552851751446724,-0.1337488293647766,0.0,0.0,0.0,0.0,0.0,0.0,0.0,0.0,0.0,-0.32307693362236023,0.3912820518016815,10.049487113952637,0.0,0.0,0.0,0.0,0.0,0.0,0.0,0.0,0.0
1646351171.5214744,7478,1646351171,521107683,,0.0,0.0,0.0,0.0,0.0,0.0,0.0,0.0,0.0,0.0,0.0,0.0,0.0,-0.028912710025906563,-0.006274553015828133,-0.17316359281539917,0.0,0.0,0.0,0.0,0.0,0.0,0.0,0.0,0.0,-0.14000000059604645,0.12564103305339813,9.776666641235352,0.0,0.0,0.0,0.0,0.0,0.0,0.0,0.0,0.0
1646351171.5237687,7479,1646351171,523388803,,0.0,0.0,0.0,0.0,0.0,0.0,0.0,0.0,0.0,0.0,0.0,0.0,0.0,-0.012933745980262756,0.019291793927550316,-0.1390751451253891,0.0,0.0,0.0,0.0,0.0,0.0,0.0,0.0,0.0,-0.06282051652669907,-0.04307692497968674,9.471538543701172,0.0,0.0,0.0,0.0,0.0,0.0,0.0,0.0,0.0
1646351171.5260088,7480,1646351171,525600715,,0.0,0.0,0.0,0.0,0.0,0.0,0.0,0.0,0.0,0.0,0.0,0.0,0.0,-0.0342390350997448,0.0363360196352005,-0.14014041423797607,0.0,0.0,0.0,0.0,0.0,0.0,0.0,0.0,0.0,-0.030512820929288864,0.2064102590084076,9.878974914550781,0.0,0.0,0.0,0.0,0.0,0.0,0.0,0.0,0.0
1646351171.5282223,7481,1646351171,527813705,,0.0,0.0,0.0,0.0,0.0,0.0,0.0,0.0,0.0,0.0,0.0,0.0,0.0,0.014763129875063896,0.01822652854025364,-0.15185831487178802,0.0,0.0,0.0,0.0,0.0,0.0,0.0,0.0,0.0,0.01794871874153614,0.05384615436196327,9.755127906799316,0.0,0.0,0.0,0.0,0.0,0.0,0.0,0.0,0.0
1646351171.5303268,7482,1646351171,530034315,,0.0,0.0,0.0,0.0,0.0,0.0,0.0,0.0,0.0,0.0,0.0,0.0,0.0,-0.003346365410834551,0.031009702011942863,-0.12629197537899017,0.0,0.0,0.0,0.0,0.0,0.0,0.0,0.0,0.0,-0.28358975052833557,0.4828205108642578,10.4605131149292,0.0,0.0,0.0,0.0,0.0,0.0,0.0,0.0,0.0
1646351171.5326328,7483,1646351171,532257919,,0.0,0.0,0.0,0.0,0.0,0.0,0.0,0.0,0.0,0.0,0.0,0.0,0.0,0.008371543139219284,0.02887917309999466,-0.13587935268878937,0.0,0.0,0.0,0.0,0.0,0.0,0.0,0.0,0.0,-0.012564103119075298,-0.08076923340559006,9.961538314819336,0.0,0.0,0.0,0.0,0.0,0.0,0.0,0.0,0.0
1646351171.5347874,7484,1646351171,534528595,,0.0,0.0,0.0,0.0,0.0,0.0,0.0,0.0,0.0,0.0,0.0,0.0,0.0,0.0009146920638158917,0.022487586364150047,-0.1390751451253891,0.0,0.0,0.0,0.0,0.0,0.0,0.0,0.0,0.0,-0.32487180829048157,-0.05564102530479431,9.844871520996094,0.0,0.0,0.0,0.0,0.0,0.0,0.0,0.0,0.0
1646351171.5371604,7485,1646351171,536722079,,0.0,0.0,0.0,0.0,0.0,0.0,0.0,0.0,0.0,0.0,0.0,0.0,0.0,0.012632600963115692,0.038466550409793854,-0.13055303692817688,0.0,0.0,0.0,0.0,0.0,0.0,0.0,0.0,0.0,-0.08076923340559006,0.12743589282035828,9.891538619995117,0.0,0.0,0.0,0.0,0.0,0.0,0.0,0.0,0.0
1646351171.5393605,7486,1646351171,538983660,,0.0,0.0,0.0,0.0,0.0,0.0,0.0,0.0,0.0,0.0,0.0,0.0,0.0,-0.020390594378113747,0.00224756239913404,-0.12735724449157715,0.0,0.0,0.0,0.0,0.0,0.0,0.0,0.0,0.0,0.06820512562990189,-0.1794871836900711,9.532564163208008,0.0,0.0,0.0,0.0,0.0,0.0,0.0,0.0,0.0
1646351171.5415008,7487,1646351171,541192215,,0.0,0.0,0.0,0.0,0.0,0.0,0.0,0.0,0.0,0.0,0.0,0.0,0.0,-0.01932533085346222,0.052314989268779755,-0.1348140984773636,0.0,0.0,0.0,0.0,0.0,0.0,0.0,0.0,0.0,-0.06102564185857773,0.03769230842590332,9.832307815551758,0.0,0.0,0.0,0.0,0.0,0.0,0.0,0.0,0.0
1646351171.5437799,7488,1646351171,543413162,,0.0,0.0,0.0,0.0,0.0,0.0,0.0,0.0,0.0,0.0,0.0,0.0,0.0,-0.017194801941514015,0.025683380663394928,-0.10924774408340454,0.0,0.0,0.0,0.0,0.0,0.0,0.0,0.0,0.0,0.43794873356819153,-0.22615385055541992,9.518204689025879,0.0,0.0,0.0,0.0,0.0,0.0,0.0,0.0,0.0
1646351171.546028,7489,1646351171,545677938,,0.0,0.0,0.0,0.0,0.0,0.0,0.0,0.0,0.0,0.0,0.0,0.0,0.0,-0.009737951681017876,0.03314023092389107,-0.1486625224351883,0.0,0.0,0.0,0.0,0.0,0.0,0.0,0.0,0.0,0.20102564990520477,0.19025641679763794,9.990256309509277,0.0,0.0,0.0,0.0,0.0,0.0,0.0,0.0,0.0
1646351171.549386,7490,1646351171,547938697,,0.0,0.0,0.0,0.0,0.0,0.0,0.0,0.0,0.0,0.0,0.0,0.0,0.0,-0.03743482753634453,0.041662342846393585,-0.115639328956604,0.0,0.0,0.0,0.0,0.0,0.0,0.0,0.0,0.0,0.03589743748307228,-0.12564103305339813,10.149999618530273,0.0,0.0,0.0,0.0,0.0,0.0,0.0,0.0,0.0
1646351171.5515144,7491,1646351171,550150818,,0.0,0.0,0.0,0.0,0.0,0.0,0.0,0.0,0.0,0.0,0.0,0.0,0.0,-0.02571691758930683,0.04379286989569664,-0.11883512139320374,0.0,0.0,0.0,0.0,0.0,0.0,0.0,0.0,0.0,-0.2620512843132019,0.3912820518016815,10.39589786529541,0.0,0.0,0.0,0.0,0.0,0.0,0.0,0.0,0.0
1646351171.5527086,7492,1646351171,552381567,,0.0,0.0,0.0,0.0,0.0,0.0,0.0,0.0,0.0,0.0,0.0,0.0,0.0,-0.02678218111395836,0.023552851751446724,-0.12735724449157715,0.0,0.0,0.0,0.0,0.0,0.0,0.0,0.0,0.0,-0.23153845965862274,0.2925640940666199,10.117691993713379,0.0,0.0,0.0,0.0,0.0,0.0,0.0,0.0,0.0
1646351171.5548773,7493,1646351171,554577981,,0.0,0.0,0.0,0.0,0.0,0.0,0.0,0.0,0.0,0.0,0.0,0.0,0.0,-0.03530430048704147,0.03314023092389107,-0.11244353652000427,0.0,0.0,0.0,0.0,0.0,0.0,0.0,0.0,0.0,-0.2656410336494446,-0.048461541533470154,9.75333309173584,0.0,0.0,0.0,0.0,0.0,0.0,0.0,0.0,0.0
1646351171.5571556,7494,1646351171,556776703,,0.0,0.0,0.0,0.0,0.0,0.0,0.0,0.0,0.0,0.0,0.0,0.0,0.0,-0.01932533085346222,0.04698866978287697,-0.09113825112581253,0.0,0.0,0.0,0.0,0.0,0.0,0.0,0.0,0.0,0.025128206238150597,0.19205129146575928,9.852051734924316,0.0,0.0,0.0,0.0,0.0,0.0,0.0,0.0,0.0
1646351171.5593317,7495,1646351171,559043633,,0.0,0.0,0.0,0.0,0.0,0.0,0.0,0.0,0.0,0.0,0.0,0.0,0.0,-0.017194801941514015,0.04485813528299332,-0.10924774408340454,0.0,0.0,0.0,0.0,0.0,0.0,0.0,0.0,0.0,-0.32307693362236023,-0.14000000059604645,9.70846176147461,0.0,0.0,0.0,0.0,0.0,0.0,0.0,0.0,0.0
1646351171.5617144,7496,1646351171,561337932,,0.0,0.0,0.0,0.0,0.0,0.0,0.0,0.0,0.0,0.0,0.0,0.0,0.0,0.008371543139219284,0.0363360196352005,-0.08687718957662582,0.0,0.0,0.0,0.0,0.0,0.0,0.0,0.0,0.0,-0.08435897529125214,0.1328205168247223,9.886154174804688,0.0,0.0,0.0,0.0,0.0,0.0,0.0,0.0,0.0
1646351171.5639408,7497,1646351171,563586388,,0.0,0.0,0.0,0.0,0.0,0.0,0.0,0.0,0.0,0.0,0.0,0.0,0.0,0.02008945122361183,0.02887917309999466,-0.1390751451253891,0.0,0.0,0.0,0.0,0.0,0.0,0.0,0.0,0.0,-0.39666667580604553,0.2800000011920929,10.264871597290039,0.0,0.0,0.0,0.0,0.0,0.0,0.0,0.0,0.0
1646351171.5664446,7498,1646351171,565879467,,0.0,0.0,0.0,0.0,0.0,0.0,0.0,0.0,0.0,0.0,0.0,0.0,0.0,0.010502072051167488,0.038466550409793854,-0.0879424586892128,0.0,0.0,0.0,0.0,0.0,0.0,0.0,0.0,0.0,-0.1148717999458313,0.3410256505012512,9.846667289733887,0.0,0.0,0.0,0.0,0.0,0.0,0.0,0.0,0.0
1646351171.568537,7499,1646351171,568189988,,0.0,0.0,0.0,0.0,0.0,0.0,0.0,0.0,0.0,0.0,0.0,0.0,0.0,0.014763129875063896,0.04379286989569664,-0.11670459806919098,0.0,0.0,0.0,0.0,0.0,0.0,0.0,0.0,0.0,-0.08974359184503555,0.18307693302631378,9.776666641235352,0.0,0.0,0.0,0.0,0.0,0.0,0.0,0.0,0.0
1646351171.570911,7500,1646351171,570462576,,0.0,0.0,0.0,0.0,0.0,0.0,0.0,0.0,0.0,0.0,0.0,0.0,0.0,0.029676830396056175,0.009704413823783398,-0.08155086636543274,0.0,0.0,0.0,0.0,0.0,0.0,0.0,0.0,0.0,0.003589743748307228,-0.07000000029802322,9.721025466918945,0.0,0.0,0.0,0.0,0.0,0.0,0.0,0.0,0.0
1646351171.5731921,7501,1646351171,572677864,,0.0,0.0,0.0,0.0,0.0,0.0,0.0,0.0,0.0,0.0,0.0,0.0,0.0,0.022219980135560036,0.012900206260383129,-0.09113825112581253,0.0,0.0,0.0,0.0,0.0,0.0,0.0,0.0,0.0,-0.3356410562992096,0.13641025125980377,9.722820281982422,0.0,0.0,0.0,0.0,0.0,0.0,0.0,0.0,0.0
1646351171.575385,7502,1646351171,574912489,,0.0,0.0,0.0,0.0,0.0,0.0,0.0,0.0,0.0,0.0,0.0,0.0,0.0,0.017958922311663628,0.02887917309999466,-0.10498668998479843,0.0,0.0,0.0,0.0,0.0,0.0,0.0,0.0,0.0,0.10051282495260239,0.3033333420753479,9.85564136505127,0.0,0.0,0.0,0.0,0.0,0.0,0.0,0.0,0.0
1646351171.5776472,7503,1646351171,577150590,,0.0,0.0,0.0,0.0,0.0,0.0,0.0,0.0,0.0,0.0,0.0,0.0,0.0,0.005175749771296978,0.02142232283949852,-0.061310846358537674,0.0,0.0,0.0,0.0,0.0,0.0,0.0,0.0,0.0,0.07179487496614456,0.08974359184503555,9.738973617553711,0.0,0.0,0.0,0.0,0.0,0.0,0.0,0.0,0.0
1646351171.579841,7504,1646351171,579389935,,0.0,0.0,0.0,0.0,0.0,0.0,0.0,0.0,0.0,0.0,0.0,0.0,0.0,-0.003346365410834551,0.01822652854025364,-0.08261613547801971,0.0,0.0,0.0,0.0,0.0,0.0,0.0,0.0,0.0,0.11128205060958862,0.40743592381477356,9.785640716552734,0.0,0.0,0.0,0.0,0.0,0.0,0.0,0.0,0.0
1646351171.5820045,7505,1646351171,581656359,,0.0,0.0,0.0,0.0,0.0,0.0,0.0,0.0,0.0,0.0,0.0,0.0,0.0,0.007306278217583895,0.04059707745909691,-0.07942034304141998,0.0,0.0,0.0,0.0,0.0,0.0,0.0,0.0,0.0,0.10051282495260239,-0.044871795922517776,9.712051391601562,0.0,0.0,0.0,0.0,0.0,0.0,0.0,0.0,0.0
1646351171.5843349,7506,1646351171,583856346,,0.0,0.0,0.0,0.0,0.0,0.0,0.0,0.0,0.0,0.0,0.0,0.0,0.0,-0.024651652202010155,0.026748644188046455,-0.053853992372751236,0.0,0.0,0.0,0.0,0.0,0.0,0.0,0.0,0.0,-0.3302564322948456,0.4002564251422882,10.23794937133789,0.0,0.0,0.0,0.0,0.0,0.0,0.0,0.0,0.0
1646351171.5865364,7507,1646351171,586062528,,0.0,0.0,0.0,0.0,0.0,0.0,0.0,0.0,0.0,0.0,0.0,0.0,0.0,-0.020390594378113747,0.019291793927550316,-0.07622455060482025,0.0,0.0,0.0,0.0,0.0,0.0,0.0,0.0,0.0,-0.20461538434028625,0.0735897421836853,10.080000877380371,0.0,0.0,0.0,0.0,0.0,0.0,0.0,0.0,0.0
1646351171.5887213,7508,1646351171,588256887,,0.0,0.0,0.0,0.0,0.0,0.0,0.0,0.0,0.0,0.0,0.0,0.0,0.0,-0.032108504325151443,0.015030735172331333,-0.057049788534641266,0.0,0.0,0.0,0.0,0.0,0.0,0.0,0.0,0.0,-0.1471794843673706,0.40743592381477356,10.367179870605469,0.0,0.0,0.0,0.0,0.0,0.0,0.0,0.0,0.0
1646351171.59178,7509,1646351171,590489586,,0.0,0.0,0.0,0.0,0.0,0.0,0.0,0.0,0.0,0.0,0.0,0.0,0.0,-0.020390594378113747,0.009704413823783398,-0.04852767288684845,0.0,0.0,0.0,0.0,0.0,0.0,0.0,0.0,0.0,-0.24230769276618958,0.5492307543754578,10.225384712219238,0.0,0.0,0.0,0.0,0.0,0.0,0.0,0.0,0.0
1646351171.5930753,7510,1646351171,592789552,,0.0,0.0,0.0,0.0,0.0,0.0,0.0,0.0,0.0,0.0,0.0,0.0,0.0,-0.02571691758930683,0.02142232283949852,-0.05278873071074486,0.0,0.0,0.0,0.0,0.0,0.0,0.0,0.0,0.0,-0.01974359154701233,0.05743589997291565,9.731794357299805,0.0,0.0,0.0,0.0,0.0,0.0,0.0,0.0,0.0
1646351171.595352,7511,1646351171,595003773,,0.0,0.0,0.0,0.0,0.0,0.0,0.0,0.0,0.0,0.0,0.0,0.0,0.0,-0.02252112329006195,0.011834941804409027,-0.08155086636543274,0.0,0.0,0.0,0.0,0.0,0.0,0.0,0.0,0.0,-0.025128206238150597,0.24051281809806824,9.841282844543457,0.0,0.0,0.0,0.0,0.0,0.0,0.0,0.0,0.0
1646351171.5976248,7512,1646351171,597224092,,0.0,0.0,0.0,0.0,0.0,0.0,0.0,0.0,0.0,0.0,0.0,0.0,0.0,-0.038500092923641205,0.004378091543912888,-0.046397142112255096,0.0,0.0,0.0,0.0,0.0,0.0,0.0,0.0,0.0,-0.5725641250610352,0.08615384995937347,10.137436866760254,0.0,0.0,0.0,0.0,0.0,0.0,0.0,0.0,0.0
1646351171.599791,7513,1646351171,599475437,,0.0,0.0,0.0,0.0,0.0,0.0,0.0,0.0,0.0,0.0,0.0,0.0,0.0,-0.045956939458847046,0.017161265015602112,-0.06663717329502106,0.0,0.0,0.0,0.0,0.0,0.0,0.0,0.0,0.0,0.07897436618804932,0.3571794927120209,9.871794700622559,0.0,0.0,0.0,0.0,0.0,0.0,0.0,0.0,0.0
1646351171.602135,7514,1646351171,601724058,,0.0,0.0,0.0,0.0,0.0,0.0,0.0,0.0,0.0,0.0,0.0,0.0,0.0,-0.0480874665081501,-0.003078758716583252,-0.061310846358537674,0.0,0.0,0.0,0.0,0.0,0.0,0.0,0.0,0.0,0.01974359154701233,0.2925640940666199,9.9005126953125,0.0,0.0,0.0,0.0,0.0,0.0,0.0,0.0,0.0
1646351171.604334,7515,1646351171,603922357,,0.0,0.0,0.0,0.0,0.0,0.0,0.0,0.0,0.0,0.0,0.0,0.0,0.0,-0.02252112329006195,0.003312827320769429,-0.060245580971241,0.0,0.0,0.0,0.0,0.0,0.0,0.0,0.0,0.0,0.12025640904903412,0.3912820518016815,9.717435836791992,0.0,0.0,0.0,0.0,0.0,0.0,0.0,0.0,0.0
1646351171.6065524,7516,1646351171,606213321,,0.0,0.0,0.0,0.0,0.0,0.0,0.0,0.0,0.0,0.0,0.0,0.0,0.0,-0.013999010436236858,-0.003078758716583252,-0.04852767288684845,0.0,0.0,0.0,0.0,0.0,0.0,0.0,0.0,0.0,0.37871795892715454,-0.05743589997291565,9.40333366394043,0.0,0.0,0.0,0.0,0.0,0.0,0.0,0.0,0.0
1646351171.6088285,7517,1646351171,608441361,,0.0,0.0,0.0,0.0,0.0,0.0,0.0,0.0,0.0,0.0,0.0,0.0,0.0,-0.020390594378113747,-0.012666137889027596,-0.02722238563001156,0.0,0.0,0.0,0.0,0.0,0.0,0.0,0.0,0.0,-0.1705128252506256,-0.18307693302631378,9.302820205688477,0.0,0.0,0.0,0.0,0.0,0.0,0.0,0.0,0.0
1646351171.6109836,7518,1646351171,610691957,,0.0,0.0,0.0,0.0,0.0,0.0,0.0,0.0,0.0,0.0,0.0,0.0,0.0,0.005175749771296978,0.008639149367809296,-0.06770243495702744,0.0,0.0,0.0,0.0,0.0,0.0,0.0,0.0,0.0,0.026923077180981636,0.19923077523708344,9.484102249145508,0.0,0.0,0.0,0.0,0.0,0.0,0.0,0.0,0.0
1646351171.613528,7519,1646351171,612967309,,0.0,0.0,0.0,0.0,0.0,0.0,0.0,0.0,0.0,0.0,0.0,0.0,0.0,0.03180735930800438,0.010769677348434925,-0.06876770406961441,0.0,0.0,0.0,0.0,0.0,0.0,0.0,0.0,0.0,-0.3769230842590332,-0.05743589997291565,9.338717460632324,0.0,0.0,0.0,0.0,0.0,0.0,0.0,0.0,0.0
1646351171.615892,7520,1646351171,615370963,,0.0,0.0,0.0,0.0,0.0,0.0,0.0,0.0,0.0,0.0,0.0,0.0,0.0,0.02435050904750824,0.006508619990199804,-0.050658199936151505,0.0,0.0,0.0,0.0,0.0,0.0,0.0,0.0,0.0,-0.3069230914115906,0.3446153998374939,9.929230690002441,0.0,0.0,0.0,0.0,0.0,0.0,0.0,0.0,0.0
1646351171.6181026,7521,1646351171,617623023,,0.0,0.0,0.0,0.0,0.0,0.0,0.0,0.0,0.0,0.0,0.0,0.0,0.0,0.02115471661090851,0.017161265015602112,-0.0645066350698471,0.0,0.0,0.0,0.0,0.0,0.0,0.0,0.0,0.0,-0.22256410121917725,0.15794873237609863,9.791025161743164,0.0,0.0,0.0,0.0,0.0,0.0,0.0,0.0,0.0
1646351171.620382,7522,1646351171,619911850,,0.0,0.0,0.0,0.0,0.0,0.0,0.0,0.0,0.0,0.0,0.0,0.0,0.0,0.04672106355428696,0.008639149367809296,-0.025091856718063354,0.0,0.0,0.0,0.0,0.0,0.0,0.0,0.0,0.0,-0.20820513367652893,0.36974361538887024,10.027949333190918,0.0,0.0,0.0,0.0,0.0,0.0,0.0,0.0,0.0
1646351171.622509,7523,1646351171,622126214,,0.0,0.0,0.0,0.0,0.0,0.0,0.0,0.0,0.0,0.0,0.0,0.0,0.0,0.03287262097001076,0.008639149367809296,-0.06237610802054405,0.0,0.0,0.0,0.0,0.0,0.0,0.0,0.0,0.0,0.15794873237609863,0.05384615436196327,9.575640678405762,0.0,0.0,0.0,0.0,0.0,0.0,0.0,0.0,0.0
1646351171.6247747,7524,1646351171,624375179,,0.0,0.0,0.0,0.0,0.0,0.0,0.0,0.0,0.0,0.0,0.0,0.0,0.0,0.052047379314899445,0.008639149367809296,-0.038940295577049255,0.0,0.0,0.0,0.0,0.0,0.0,0.0,0.0,0.0,-0.3823077082633972,-0.010769231244921684,9.607949256896973,0.0,0.0,0.0,0.0,0.0,0.0,0.0,0.0,0.0
1646351171.6270077,7525,1646351171,626611102,,0.0,0.0,0.0,0.0,0.0,0.0,0.0,0.0,0.0,0.0,0.0,0.0,0.0,0.02754630148410797,0.003312827320769429,-0.05598452314734459,0.0,0.0,0.0,0.0,0.0,0.0,0.0,0.0,0.0,-0.08435897529125214,0.23333333432674408,9.848461151123047,0.0,0.0,0.0,0.0,0.0,0.0,0.0,0.0,0.0
1646351171.6294906,7526,1646351171,628891606,,0.0,0.0,0.0,0.0,0.0,0.0,0.0,0.0,0.0,0.0,0.0,0.0,0.0,0.023285245522856712,-0.024384047836065292,-0.05491925776004791,0.0,0.0,0.0,0.0,0.0,0.0,0.0,0.0,0.0,0.05564102530479431,-0.3320513069629669,9.10897445678711,0.0,0.0,0.0,0.0,0.0,0.0,0.0,0.0,0.0
1646351171.6327693,7527,1646351171,631142438,,0.0,0.0,0.0,0.0,0.0,0.0,0.0,0.0,0.0,0.0,0.0,0.0,0.0,0.025415774434804916,-0.004144023172557354,-0.04746240749955177,0.0,0.0,0.0,0.0,0.0,0.0,0.0,0.0,0.0,-0.23512820899486542,0.38769233226776123,10.286410331726074,0.0,0.0,0.0,0.0,0.0,0.0,0.0,0.0,0.0
1646351171.6337116,7528,1646351171,633355631,,0.0,0.0,0.0,0.0,0.0,0.0,0.0,0.0,0.0,0.0,0.0,0.0,0.0,0.022219980135560036,-0.003078758716583252,-0.04852767288684845,0.0,0.0,0.0,0.0,0.0,0.0,0.0,0.0,0.0,0.24589744210243225,-0.0735897421836853,9.532564163208008,0.0,0.0,0.0,0.0,0.0,0.0,0.0,0.0,0.0
1646351171.635896,7529,1646351171,635546396,,0.0,0.0,0.0,0.0,0.0,0.0,0.0,0.0,0.0,0.0,0.0,0.0,0.0,0.0030452206265181303,-0.005209287628531456,-0.057049788534641266,0.0,0.0,0.0,0.0,0.0,0.0,0.0,0.0,0.0,-0.005384615622460842,0.37871795892715454,9.778461456298828,0.0,0.0,0.0,0.0,0.0,0.0,0.0,0.0,0.0
1646351171.6380358,7530,1646351171,637745692,,0.0,0.0,0.0,0.0,0.0,0.0,0.0,0.0,0.0,0.0,0.0,0.0,0.0,-0.007607422769069672,-0.006274553015828133,-0.05278873071074486,0.0,0.0,0.0,0.0,0.0,0.0,0.0,0.0,0.0,0.06641025841236115,0.24589744210243225,9.870000839233398,0.0,0.0,0.0,0.0,0.0,0.0,0.0,0.0,0.0
1646351171.640265,7531,1646351171,639985422,,0.0,0.0,0.0,0.0,0.0,0.0,0.0,0.0,0.0,0.0,0.0,0.0,0.0,0.010502072051167488,-0.01799245923757553,-0.021896062418818474,0.0,0.0,0.0,0.0,0.0,0.0,0.0,0.0,0.0,0.18307693302631378,-0.23512820899486542,9.412307739257812,0.0,0.0,0.0,0.0,0.0,0.0,0.0,0.0,0.0
1646351171.642655,7532,1646351171,642251220,,0.0,0.0,0.0,0.0,0.0,0.0,0.0,0.0,0.0,0.0,0.0,0.0,0.0,-0.009737951681017876,-0.0009482299210503697,-0.053853992372751236,0.0,0.0,0.0,0.0,0.0,0.0,0.0,0.0,0.0,0.003589743748307228,0.18487180769443512,9.676154136657715,0.0,0.0,0.0,0.0,0.0,0.0,0.0,0.0,0.0
1646351171.64487,7533,1646351171,644450141,,0.0,0.0,0.0,0.0,0.0,0.0,0.0,0.0,0.0,0.0,0.0,0.0,0.0,0.009436807595193386,-0.009470346383750439,-0.004851834382861853,0.0,0.0,0.0,0.0,0.0,0.0,0.0,0.0,0.0,0.4684615433216095,-0.2674359083175659,9.318974494934082,0.0,0.0,0.0,0.0,0.0,0.0,0.0,0.0,0.0
1646351171.647022,7534,1646351171,646626161,,0.0,0.0,0.0,0.0,0.0,0.0,0.0,0.0,0.0,0.0,0.0,0.0,0.0,-0.016129538416862488,-0.020122988149523735,-0.03787503018975258,0.0,0.0,0.0,0.0,0.0,0.0,0.0,0.0,0.0,0.014358974993228912,0.34641027450561523,10.001025199890137,0.0,0.0,0.0,0.0,0.0,0.0,0.0,0.0,0.0
1646351171.6493363,7535,1646351171,648894636,,0.0,0.0,0.0,0.0,0.0,0.0,0.0,0.0,0.0,0.0,0.0,0.0,0.0,0.0030452206265181303,-0.009470346383750439,-0.0037865692283958197,0.0,0.0,0.0,0.0,0.0,0.0,0.0,0.0,0.0,-0.14358974993228912,-0.10410256683826447,9.676154136657715,0.0,0.0,0.0,0.0,0.0,0.0,0.0,0.0,0.0
1646351171.6515374,7536,1646351171,651097758,,0.0,0.0,0.0,0.0,0.0,0.0,0.0,0.0,0.0,0.0,0.0,0.0,0.0,-0.007607422769069672,0.001182297826744616,-0.040005557239055634,0.0,0.0,0.0,0.0,0.0,0.0,0.0,0.0,0.0,-0.29615384340286255,0.43435898423194885,10.307948112487793,0.0,0.0,0.0,0.0,0.0,0.0,0.0,0.0,0.0
1646351171.6537578,7537,1646351171,653340379,,0.0,0.0,0.0,0.0,0.0,0.0,0.0,0.0,0.0,0.0,0.0,0.0,0.0,-0.01186848059296608,-0.013731402345001698,-0.031483445316553116,0.0,0.0,0.0,0.0,0.0,0.0,0.0,0.0,0.0,-0.3302564322948456,0.28179487586021423,10.211026191711426,0.0,0.0,0.0,0.0,0.0,0.0,0.0,0.0,0.0
1646351171.6560142,7538,1646351171,655584296,,0.0,0.0,0.0,0.0,0.0,0.0,0.0,0.0,0.0,0.0,0.0,0.0,0.0,0.02435050904750824,0.003312827320769429,0.01112713199108839,0.0,0.0,0.0,0.0,0.0,0.0,0.0,0.0,0.0,-0.17589744925498962,0.05384615436196327,9.672564506530762,0.0,0.0,0.0,0.0,0.0,0.0,0.0,0.0,0.0
1646351171.6581368,7539,1646351171,657798934,,0.0,0.0,0.0,0.0,0.0,0.0,0.0,0.0,0.0,0.0,0.0,0.0,0.0,0.02435050904750824,-0.011600873433053493,-0.03467923775315285,0.0,0.0,0.0,0.0,0.0,0.0,0.0,0.0,0.0,-0.09871795028448105,0.21358974277973175,9.920256614685059,0.0,0.0,0.0,0.0,0.0,0.0,0.0,0.0,0.0
1646351171.6603725,7540,1646351171,660003579,,0.0,0.0,0.0,0.0,0.0,0.0,0.0,0.0,0.0,0.0,0.0,0.0,0.0,-0.00654215831309557,0.001182297826744616,-0.0101781552657485,0.0,0.0,0.0,0.0,0.0,0.0,0.0,0.0,0.0,-0.40205129981040955,-0.1561538577079773,9.783845901489258,0.0,0.0,0.0,0.0,0.0,0.0,0.0,0.0,0.0
1646351171.6627045,7541,1646351171,662323443,,0.0,0.0,0.0,0.0,0.0,0.0,0.0,0.0,0.0,0.0,0.0,0.0,0.0,0.013697865419089794,-0.009470346383750439,-0.006982361897826195,0.0,0.0,0.0,0.0,0.0,0.0,0.0,0.0,0.0,0.15794873237609863,0.1794871836900711,9.695897102355957,0.0,0.0,0.0,0.0,0.0,0.0,0.0,0.0,0.0
1646351171.665115,7542,1646351171,664550273,,0.0,0.0,0.0,0.0,0.0,0.0,0.0,0.0,0.0,0.0,0.0,0.0,0.0,-0.00015057262498885393,-0.003078758716583252,-0.015504478476941586,0.0,0.0,0.0,0.0,0.0,0.0,0.0,0.0,0.0,0.2710256576538086,-0.2441025674343109,9.473333358764648,0.0,0.0,0.0,0.0,0.0,0.0,0.0,0.0,0.0
1646351171.667391,7543,1646351171,666803906,,0.0,0.0,0.0,0.0,0.0,0.0,0.0,0.0,0.0,0.0,0.0,0.0,0.0,-0.01186848059296608,0.001182297826744616,-0.0037865692283958197,0.0,0.0,0.0,0.0,0.0,0.0,0.0,0.0,0.0,-0.17589744925498962,0.30153846740722656,9.9005126953125,0.0,0.0,0.0,0.0,0.0,0.0,0.0,0.0,0.0
1646351171.6695702,7544,1646351171,669104055,,0.0,0.0,0.0,0.0,0.0,0.0,0.0,0.0,0.0,0.0,0.0,0.0,0.0,-0.00654215831309557,0.02887917309999466,0.0026050168089568615,0.0,0.0,0.0,0.0,0.0,0.0,0.0,0.0,0.0,0.15076923370361328,-0.007179487496614456,9.95974349975586,0.0,0.0,0.0,0.0,0.0,0.0,0.0,0.0,0.0
1646351171.6717863,7545,1646351171,671343282,,0.0,0.0,0.0,0.0,0.0,0.0,0.0,0.0,0.0,0.0,0.0,0.0,0.0,-0.023586388677358627,0.023552851751446724,0.0164534542709589,0.0,0.0,0.0,0.0,0.0,0.0,0.0,0.0,0.0,-0.2297435998916626,-0.02153846248984337,9.774871826171875,0.0,0.0,0.0,0.0,0.0,0.0,0.0,0.0,0.0
1646351171.6739721,7546,1646351171,673542866,,0.0,0.0,0.0,0.0,0.0,0.0,0.0,0.0,0.0,0.0,0.0,0.0,0.0,0.019024187698960304,0.016095999628305435,0.0036702812649309635,0.0,0.0,0.0,0.0,0.0,0.0,0.0,0.0,0.0,-0.05743589997291565,0.2476923167705536,10.017179489135742,0.0,0.0,0.0,0.0,0.0,0.0,0.0,0.0,0.0
1646351171.6768634,7547,1646351171,675763228,,0.0,0.0,0.0,0.0,0.0,0.0,0.0,0.0,0.0,0.0,0.0,0.0,0.0,-0.038500092923641205,0.011834941804409027,0.026040835306048393,0.0,0.0,0.0,0.0,0.0,0.0,0.0,0.0,0.0,-0.026923077180981636,-0.12923076748847961,9.383589744567871,0.0,0.0,0.0,0.0,0.0,0.0,0.0,0.0,0.0
1646351171.6783357,7548,1646351171,677975235,,0.0,0.0,0.0,0.0,0.0,0.0,0.0,0.0,0.0,0.0,0.0,0.0,0.0,-0.012933745980262756,0.010769677348434925,-0.020830798894166946,0.0,0.0,0.0,0.0,0.0,0.0,0.0,0.0,0.0,0.08794872462749481,0.25487178564071655,9.913077354431152,0.0,0.0,0.0,0.0,0.0,0.0,0.0,0.0,0.0
1646351171.6809876,7549,1646351171,680211977,,0.0,0.0,0.0,0.0,0.0,0.0,0.0,0.0,0.0,0.0,0.0,0.0,0.0,-0.007607422769069672,0.007573884446173906,0.012192396447062492,0.0,0.0,0.0,0.0,0.0,0.0,0.0,0.0,0.0,-0.25128206610679626,-0.1705128252506256,9.598974227905273,0.0,0.0,0.0,0.0,0.0,0.0,0.0,0.0,0.0
1646351171.6827958,7550,1646351171,682441404,,0.0,0.0,0.0,0.0,0.0,0.0,0.0,0.0,0.0,0.0,0.0,0.0,0.0,0.006241013761609793,0.00224756239913404,0.010061867535114288,0.0,0.0,0.0,0.0,0.0,0.0,0.0,0.0,0.0,0.22794872522354126,0.24589744210243225,9.75333309173584,0.0,0.0,0.0,0.0,0.0,0.0,0.0,0.0,0.0
1646351171.6850643,7551,1646351171,684658020,,0.0,0.0,0.0,0.0,0.0,0.0,0.0,0.0,0.0,0.0,0.0,0.0,0.0,0.005175749771296978,-0.004144023172557354,0.01112713199108839,0.0,0.0,0.0,0.0,0.0,0.0,0.0,0.0,0.0,0.016153845936059952,0.16153846681118011,10.144615173339844,0.0,0.0,0.0,0.0,0.0,0.0,0.0,0.0,0.0
1646351171.6872473,7552,1646351171,686888525,,0.0,0.0,0.0,0.0,0.0,0.0,0.0,0.0,0.0,0.0,0.0,0.0,0.0,-0.009737951681017876,0.007573884446173906,-0.0005907765007577837,0.0,0.0,0.0,0.0,0.0,0.0,0.0,0.0,0.0,-0.1884615421295166,0.45769232511520386,10.160768508911133,0.0,0.0,0.0,0.0,0.0,0.0,0.0,0.0,0.0
1646351171.6895447,7553,1646351171,689168776,,0.0,0.0,0.0,0.0,0.0,0.0,0.0,0.0,0.0,0.0,0.0,0.0,0.0,-0.00654215831309557,0.009704413823783398,0.013257660903036594,0.0,0.0,0.0,0.0,0.0,0.0,0.0,0.0,0.0,0.1238461583852768,0.19564102590084076,9.728204727172852,0.0,0.0,0.0,0.0,0.0,0.0,0.0,0.0,0.0
1646351171.6917155,7554,1646351171,691386204,,0.0,0.0,0.0,0.0,0.0,0.0,0.0,0.0,0.0,0.0,0.0,0.0,0.0,0.0009146920638158917,-0.007339817471802235,0.0047355457209050655,0.0,0.0,0.0,0.0,0.0,0.0,0.0,0.0,0.0,-0.38948720693588257,-0.001794871874153614,9.837692260742188,0.0,0.0,0.0,0.0,0.0,0.0,0.0,0.0,0.0
1646351171.6939747,7555,1646351171,693627969,,0.0,0.0,0.0,0.0,0.0,0.0,0.0,0.0,0.0,0.0,0.0,0.0,0.0,0.010502072051167488,-0.02225351706147194,0.013257660903036594,0.0,0.0,0.0,0.0,0.0,0.0,0.0,0.0,0.0,-0.03948718309402466,0.32846155762672424,10.180513381958008,0.0,0.0,0.0,0.0,0.0,0.0,0.0,0.0,0.0
1646351171.6963482,7556,1646351171,695922694,,0.0,0.0,0.0,0.0,0.0,0.0,0.0,0.0,0.0,0.0,0.0,0.0,0.0,0.01156733650714159,-0.004144023172557354,0.00686607463285327,0.0,0.0,0.0,0.0,0.0,0.0,0.0,0.0,0.0,0.007179487496614456,0.06461538374423981,9.846667289733887,0.0,0.0,0.0,0.0,0.0,0.0,0.0,0.0,0.0
1646351171.6992755,7557,1646351171,698198630,,0.0,0.0,0.0,0.0,0.0,0.0,0.0,0.0,0.0,0.0,0.0,0.0,0.0,-0.024651652202010155,-0.01799245923757553,-0.005917098838835955,0.0,0.0,0.0,0.0,0.0,0.0,0.0,0.0,0.0,-0.22256410121917725,0.38948720693588257,10.464102745056152,0.0,0.0,0.0,0.0,0.0,0.0,0.0,0.0,0.0
1646351171.7009094,7558,1646351171,700470016,,0.0,0.0,0.0,0.0,0.0,0.0,0.0,0.0,0.0,0.0,0.0,0.0,0.0,0.0009146920638158917,-0.0009482299210503697,-0.009112890809774399,0.0,0.0,0.0,0.0,0.0,0.0,0.0,0.0,0.0,-0.2764102518558502,0.4558974504470825,10.336666107177734,0.0,0.0,0.0,0.0,0.0,0.0,0.0,0.0,0.0
1646351171.7031097,7559,1646351171,702661878,,0.0,0.0,0.0,0.0,0.0,0.0,0.0,0.0,0.0,0.0,0.0,0.0,0.0,-0.002281100954860449,0.00011703448399202898,0.014322925359010696,0.0,0.0,0.0,0.0,0.0,0.0,0.0,0.0,0.0,-0.3033333420753479,0.0735897421836853,9.877179145812988,0.0,0.0,0.0,0.0,0.0,0.0,0.0,0.0,0.0
1646351171.7053354,7560,1646351171,704954605,,0.0,0.0,0.0,0.0,0.0,0.0,0.0,0.0,0.0,0.0,0.0,0.0,0.0,-0.00441163033246994,0.00544335599988699,-0.0016560404328629375,0.0,0.0,0.0,0.0,0.0,0.0,0.0,0.0,0.0,-0.18128205835819244,0.3033333420753479,10.0853853225708,0.0,0.0,0.0,0.0,0.0,0.0,0.0,0.0,0.0
1646351171.707527,7561,1646351171,707209418,,0.0,0.0,0.0,0.0,0.0,0.0,0.0,0.0,0.0,0.0,0.0,0.0,0.0,-0.00654215831309557,-0.005209287628531456,0.03882400318980217,0.0,0.0,0.0,0.0,0.0,0.0,0.0,0.0,0.0,0.06282051652669907,-0.17769230902194977,9.39435863494873,0.0,0.0,0.0,0.0,0.0,0.0,0.0,0.0,0.0
1646351171.7098918,7562,1646351171,709448034,,0.0,0.0,0.0,0.0,0.0,0.0,0.0,0.0,0.0,0.0,0.0,0.0,0.0,0.0009146920638158917,-0.011600873433053493,0.0026050168089568615,0.0,0.0,0.0,0.0,0.0,0.0,0.0,0.0,0.0,0.08974359184503555,0.3589743673801422,9.730000495910645,0.0,0.0,0.0,0.0,0.0,0.0,0.0,0.0,0.0
1646351171.7120552,7563,1646351171,711687808,,0.0,0.0,0.0,0.0,0.0,0.0,0.0,0.0,0.0,0.0,0.0,0.0,0.0,0.006241013761609793,0.007573884446173906,0.03456294909119606,0.0,0.0,0.0,0.0,0.0,0.0,0.0,0.0,0.0,0.33743590116500854,-0.19025641679763794,9.336922645568848,0.0,0.0,0.0,0.0,0.0,0.0,0.0,0.0,0.0
