Time,header.seq,header.stamp.secs,header.stamp.nsecs,header.frame_id,orientation.x,orientation.y,orientation.z,orientation.w,orientation_covariance_0,orientation_covariance_1,orientation_covariance_2,orientation_covariance_3,orientation_covariance_4,orientation_covariance_5,orientation_covariance_6,orientation_covariance_7,orientation_covariance_8,angular_velocity.x,angular_velocity.y,angular_velocity.z,angular_velocity_covariance_0,angular_velocity_covariance_1,angular_velocity_covariance_2,angular_velocity_covariance_3,angular_velocity_covariance_4,angular_velocity_covariance_5,angular_velocity_covariance_6,angular_velocity_covariance_7,angular_velocity_covariance_8,linear_acceleration.x,linear_acceleration.y,linear_acceleration.z,linear_acceleration_covariance_0,linear_acceleration_covariance_1,linear_acceleration_covariance_2,linear_acceleration_covariance_3,linear_acceleration_covariance_4,linear_acceleration_covariance_5,linear_acceleration_covariance_6,linear_acceleration_covariance_7,linear_acceleration_covariance_8
1646244019.435686,7237,1646244019,435359120,,0.0,0.0,0.0,0.0,0.0,0.0,0.0,0.0,0.0,0.0,0.0,0.0,0.0,-0.0003320134710520506,0.11561185866594315,-0.004486078396439552,0.0,0.0,0.0,0.0,0.0,0.0,0.0,0.0,0.0,0.4146153926849365,-0.28358975052833557,9.466153144836426,0.0,0.0,0.0,0.0,0.0,0.0,0.0,0.0,0.0
1646244019.4380333,7238,1646244019,437602071,,0.0,0.0,0.0,0.0,0.0,0.0,0.0,0.0,0.0,0.0,0.0,0.0,0.0,-0.0077888634987175465,0.12093818187713623,-0.022595571354031563,0.0,0.0,0.0,0.0,0.0,0.0,0.0,0.0,0.0,0.2530769407749176,0.19025641679763794,9.636667251586914,0.0,0.0,0.0,0.0,0.0,0.0,0.0,0.0,0.0
1646244019.440592,7239,1646244019,439825965,,0.0,0.0,0.0,0.0,0.0,0.0,0.0,0.0,0.0,0.0,0.0,0.0,0.0,0.016712216660380363,0.12946029007434845,-0.01407345850020647,0.0,0.0,0.0,0.0,0.0,0.0,0.0,0.0,0.0,0.14358974993228912,-0.11666666716337204,9.528974533081055,0.0,0.0,0.0,0.0,0.0,0.0,0.0,0.0,0.0
1646244019.442928,7240,1646244019,442083425,,0.0,0.0,0.0,0.0,0.0,0.0,0.0,0.0,0.0,0.0,0.0,0.0,0.0,-0.0024625419173389673,0.10602448135614395,-0.011942928656935692,0.0,0.0,0.0,0.0,0.0,0.0,0.0,0.0,0.0,0.11846154183149338,-0.19025641679763794,9.68871784210205,0.0,0.0,0.0,0.0,0.0,0.0,0.0,0.0,0.0
1646244019.4452536,7241,1646244019,444513551,,0.0,0.0,0.0,0.0,0.0,0.0,0.0,0.0,0.0,0.0,0.0,0.0,0.0,0.03269118070602417,0.11028553545475006,-0.032182954251766205,0.0,0.0,0.0,0.0,0.0,0.0,0.0,0.0,0.0,0.06102564185857773,0.18666666746139526,10.151795387268066,0.0,0.0,0.0,0.0,0.0,0.0,0.0,0.0,0.0
1646244019.447206,7242,1646244019,446762750,,0.0,0.0,0.0,0.0,0.0,0.0,0.0,0.0,0.0,0.0,0.0,0.0,0.0,0.02949538826942444,0.1411781907081604,-0.0023555487859994173,0.0,0.0,0.0,0.0,0.0,0.0,0.0,0.0,0.0,0.18666666746139526,0.1561538577079773,10.114103317260742,0.0,0.0,0.0,0.0,0.0,0.0,0.0,0.0,0.0
1646244019.4493802,7243,1646244019,448962989,,0.0,0.0,0.0,0.0,0.0,0.0,0.0,0.0,0.0,0.0,0.0,0.0,0.0,0.04547435790300369,0.094306580722332,0.021080268546938896,0.0,0.0,0.0,0.0,0.0,0.0,0.0,0.0,0.0,0.2028205245733261,-0.10948718339204788,9.95974349975586,0.0,0.0,0.0,0.0,0.0,0.0,0.0,0.0,0.0
1646244019.4516578,7244,1646244019,451190000,,0.0,0.0,0.0,0.0,0.0,0.0,0.0,0.0,0.0,0.0,0.0,0.0,0.0,0.03269118070602417,0.10708974301815033,-0.02366083674132824,0.0,0.0,0.0,0.0,0.0,0.0,0.0,0.0,0.0,0.4630769193172455,-0.048461541533470154,9.633076667785645,0.0,0.0,0.0,0.0,0.0,0.0,0.0,0.0,0.0
1646244019.4538407,7245,1646244019,453389924,,0.0,0.0,0.0,0.0,0.0,0.0,0.0,0.0,0.0,0.0,0.0,0.0,0.0,0.024169068783521652,0.07832761108875275,-0.0076818703673779964,0.0,0.0,0.0,0.0,0.0,0.0,0.0,0.0,0.0,-0.11666666716337204,-0.12923076748847961,10.250513076782227,0.0,0.0,0.0,0.0,0.0,0.0,0.0,0.0,0.0
1646244019.4560091,7246,1646244019,455615022,,0.0,0.0,0.0,0.0,0.0,0.0,0.0,0.0,0.0,0.0,0.0,0.0,0.0,0.041213300079107285,0.08898025751113892,-0.0076818703673779964,0.0,0.0,0.0,0.0,0.0,0.0,0.0,0.0,0.0,-0.03769230842590332,0.2207692414522171,10.272051811218262,0.0,0.0,0.0,0.0,0.0,0.0,0.0,0.0,0.0
1646244019.4582489,7247,1646244019,457850527,,0.0,0.0,0.0,0.0,0.0,0.0,0.0,0.0,0.0,0.0,0.0,0.0,0.0,0.03908276557922363,0.07939288020133972,0.005101301707327366,0.0,0.0,0.0,0.0,0.0,0.0,0.0,0.0,0.0,0.005384615622460842,-0.1705128252506256,10.295385360717773,0.0,0.0,0.0,0.0,0.0,0.0,0.0,0.0,0.0
1646244019.4607456,7248,1646244019,460138549,,0.0,0.0,0.0,0.0,0.0,0.0,0.0,0.0,0.0,0.0,0.0,0.0,0.0,0.00712483748793602,0.0527612641453743,0.0019055086886510253,0.0,0.0,0.0,0.0,0.0,0.0,0.0,0.0,0.0,0.16871795058250427,0.19205129146575928,9.931025505065918,0.0,0.0,0.0,0.0,0.0,0.0,0.0,0.0,0.0
1646244019.462819,7249,1646244019,462362706,,0.0,0.0,0.0,0.0,0.0,0.0,0.0,0.0,0.0,0.0,0.0,0.0,0.0,0.006059573031961918,0.07406655699014664,0.011492888443171978,0.0,0.0,0.0,0.0,0.0,0.0,0.0,0.0,0.0,0.07717949151992798,-0.24589744210243225,10.11230754852295,0.0,0.0,0.0,0.0,0.0,0.0,0.0,0.0,0.0
1646244019.4650006,7250,1646244019,464580777,,0.0,0.0,0.0,0.0,0.0,0.0,0.0,0.0,0.0,0.0,0.0,0.0,0.0,0.03375644609332085,0.05169600248336792,-0.01407345850020647,0.0,0.0,0.0,0.0,0.0,0.0,0.0,0.0,0.0,-0.22256410121917725,0.3123077154159546,10.4910249710083,0.0,0.0,0.0,0.0,0.0,0.0,0.0,0.0,0.0
1646244019.4672947,7251,1646244019,466807688,,0.0,0.0,0.0,0.0,0.0,0.0,0.0,0.0,0.0,0.0,0.0,0.0,0.0,0.0007332512177526951,0.04956547170877457,0.010427623987197876,0.0,0.0,0.0,0.0,0.0,0.0,0.0,0.0,0.0,-0.31589746475219727,0.15974359214305878,10.846410751342773,0.0,0.0,0.0,0.0,0.0,0.0,0.0,0.0,0.0
1646244019.46951,7252,1646244019,469110776,,0.0,0.0,0.0,0.0,0.0,0.0,0.0,0.0,0.0,0.0,0.0,0.0,0.0,0.011385894380509853,0.028260184451937675,0.006166566163301468,0.0,0.0,0.0,0.0,0.0,0.0,0.0,0.0,0.0,-0.6497436165809631,0.11666666716337204,10.699231147766113,0.0,0.0,0.0,0.0,0.0,0.0,0.0,0.0,0.0
1646244019.4717355,7253,1646244019,471356147,,0.0,0.0,0.0,0.0,0.0,0.0,0.0,0.0,0.0,0.0,0.0,0.0,0.0,-0.013115186244249344,0.01654227450489998,-0.0023555487859994173,0.0,0.0,0.0,0.0,0.0,0.0,0.0,0.0,0.0,-0.5492307543754578,0.2925640940666199,11.095897674560547,0.0,0.0,0.0,0.0,0.0,0.0,0.0,0.0,0.0
1646244019.4740608,7254,1646244019,473597051,,0.0,0.0,0.0,0.0,0.0,0.0,0.0,0.0,0.0,0.0,0.0,0.0,0.0,0.006059573031961918,0.020803332328796387,0.017884474247694016,0.0,0.0,0.0,0.0,0.0,0.0,0.0,0.0,0.0,-0.47564104199409485,-0.09692308306694031,10.20025634765625,0.0,0.0,0.0,0.0,0.0,0.0,0.0,0.0,0.0
1646244019.4760644,7255,1646244019,475811994,,0.0,0.0,0.0,0.0,0.0,0.0,0.0,0.0,0.0,0.0,0.0,0.0,0.0,-0.004593071062117815,0.004824366886168718,-0.030052425339818,0.0,0.0,0.0,0.0,0.0,0.0,0.0,0.0,0.0,-0.14179487526416779,0.12743589282035828,10.430000305175781,0.0,0.0,0.0,0.0,0.0,0.0,0.0,0.0,0.0
1646244019.4782941,7256,1646244019,478067055,,0.0,0.0,0.0,0.0,0.0,0.0,0.0,0.0,0.0,0.0,0.0,0.0,0.0,0.013516423292458057,0.004824366886168718,0.021080268546938896,0.0,0.0,0.0,0.0,0.0,0.0,0.0,0.0,0.0,-0.3069230914115906,-0.14179487526416779,10.022564888000488,0.0,0.0,0.0,0.0,0.0,0.0,0.0,0.0,0.0
1646244019.4805992,7257,1646244019,480282696,,0.0,0.0,0.0,0.0,0.0,0.0,0.0,0.0,0.0,0.0,0.0,0.0,0.0,0.003929044120013714,0.012281217612326145,0.005101301707327366,0.0,0.0,0.0,0.0,0.0,0.0,0.0,0.0,0.0,-0.6856410503387451,0.4828205108642578,10.616666793823242,0.0,0.0,0.0,0.0,0.0,0.0,0.0,0.0,0.0
1646244019.4827774,7258,1646244019,482420793,,0.0,0.0,0.0,0.0,0.0,0.0,0.0,0.0,0.0,0.0,0.0,0.0,0.0,0.023103805258870125,-0.020741978660225868,-0.0076818703673779964,0.0,0.0,0.0,0.0,0.0,0.0,0.0,0.0,0.0,-0.39846155047416687,0.22435897588729858,10.040512084960938,0.0,0.0,0.0,0.0,0.0,0.0,0.0,0.0,0.0
1646244019.484845,7259,1646244019,484569232,,0.0,0.0,0.0,0.0,0.0,0.0,0.0,0.0,0.0,0.0,0.0,0.0,0.0,0.019908009096980095,0.012281217612326145,0.032798174768686295,0.0,0.0,0.0,0.0,0.0,0.0,0.0,0.0,0.0,-1.0158973932266235,0.20461538434028625,10.801538467407227,0.0,0.0,0.0,0.0,0.0,0.0,0.0,0.0,0.0
1646244019.4869988,7260,1646244019,486722869,,0.0,0.0,0.0,0.0,0.0,0.0,0.0,0.0,0.0,0.0,0.0,0.0,0.0,0.00925536546856165,-0.009024071507155895,0.002970772795379162,0.0,0.0,0.0,0.0,0.0,0.0,0.0,0.0,0.0,-0.6802564263343811,0.3356410562992096,10.632820129394531,0.0,0.0,0.0,0.0,0.0,0.0,0.0,0.0,0.0
1646244019.4892914,7261,1646244019,488956664,,0.0,0.0,0.0,0.0,0.0,0.0,0.0,0.0,0.0,0.0,0.0,0.0,0.0,0.003929044120013714,-0.03245988488197327,-0.0034208132419735193,0.0,0.0,0.0,0.0,0.0,0.0,0.0,0.0,0.0,-0.5187179446220398,-0.02153846248984337,10.313332557678223,0.0,0.0,0.0,0.0,0.0,0.0,0.0,0.0,0.0
1646244019.4914727,7262,1646244019,491108757,,0.0,0.0,0.0,0.0,0.0,0.0,0.0,0.0,0.0,0.0,0.0,0.0,0.0,-0.0003320134710520506,-0.012219863012433052,0.005101301707327366,0.0,0.0,0.0,0.0,0.0,0.0,0.0,0.0,0.0,-0.8435897827148438,0.5474358797073364,10.548460960388184,0.0,0.0,0.0,0.0,0.0,0.0,0.0,0.0,0.0
1646244019.4936242,7263,1646244019,493266996,,0.0,0.0,0.0,0.0,0.0,0.0,0.0,0.0,0.0,0.0,0.0,0.0,0.0,0.0028637798968702555,-0.009024071507155895,0.004036037251353264,0.0,0.0,0.0,0.0,0.0,0.0,0.0,0.0,0.0,-0.6515384912490845,0.11846154183149338,10.289999961853027,0.0,0.0,0.0,0.0,0.0,0.0,0.0,0.0,0.0
1646244019.4958417,7264,1646244019,495488304,,0.0,0.0,0.0,0.0,0.0,0.0,0.0,0.0,0.0,0.0,0.0,0.0,0.0,0.013516423292458057,-0.06654834747314453,-0.0034208132419735193,0.0,0.0,0.0,0.0,0.0,0.0,0.0,0.0,0.0,-0.35538461804389954,0.24230769276618958,9.999231338500977,0.0,0.0,0.0,0.0,0.0,0.0,0.0,0.0,0.0
1646244019.4978852,7265,1646244019,497664973,,0.0,0.0,0.0,0.0,0.0,0.0,0.0,0.0,0.0,0.0,0.0,0.0,0.0,0.00712483748793602,-0.03139462321996689,-0.006616605911403894,0.0,0.0,0.0,0.0,0.0,0.0,0.0,0.0,0.0,-0.36076924204826355,0.24589744210243225,9.873589515686035,0.0,0.0,0.0,0.0,0.0,0.0,0.0,0.0,0.0
1646244019.500005,7266,1646244019,499804722,,0.0,0.0,0.0,0.0,0.0,0.0,0.0,0.0,0.0,0.0,0.0,0.0,0.0,-0.0077888634987175465,-0.06015676259994507,-0.0076818703673779964,0.0,0.0,0.0,0.0,0.0,0.0,0.0,0.0,0.0,-0.12205128371715546,-0.0825641080737114,9.4858980178833,0.0,0.0,0.0,0.0,0.0,0.0,0.0,0.0,0.0
1646244019.5022285,7267,1646244019,501989886,,0.0,0.0,0.0,0.0,0.0,0.0,0.0,0.0,0.0,0.0,0.0,0.0,0.0,-0.0077888634987175465,-0.06867887824773788,-0.011942928656935692,0.0,0.0,0.0,0.0,0.0,0.0,0.0,0.0,0.0,-0.4684615433216095,0.22435897588729858,9.823333740234375,0.0,0.0,0.0,0.0,0.0,0.0,0.0,0.0,0.0
1646244019.504487,7268,1646244019,504185255,,0.0,0.0,0.0,0.0,0.0,0.0,0.0,0.0,0.0,0.0,0.0,0.0,0.0,-0.022702563554048538,-0.05269990861415863,0.002970772795379162,0.0,0.0,0.0,0.0,0.0,0.0,0.0,0.0,0.0,-0.6928205490112305,0.2800000011920929,10.334872245788574,0.0,0.0,0.0,0.0,0.0,0.0,0.0,0.0,0.0
1646244019.5074906,7269,1646244019,506339573,,0.0,0.0,0.0,0.0,0.0,0.0,0.0,0.0,0.0,0.0,0.0,0.0,0.0,-0.031224681064486504,-0.07293993979692459,-0.015138722956180573,0.0,0.0,0.0,0.0,0.0,0.0,0.0,0.0,0.0,-0.14538460969924927,0.11846154183149338,9.64384651184082,0.0,0.0,0.0,0.0,0.0,0.0,0.0,0.0,0.0
1646244019.5087676,7270,1646244019,508559482,,0.0,0.0,0.0,0.0,0.0,0.0,0.0,0.0,0.0,0.0,0.0,0.0,0.0,-0.030159417539834976,-0.07400520145893097,-0.008747135289013386,0.0,0.0,0.0,0.0,0.0,0.0,0.0,0.0,0.0,-0.5384615659713745,0.19384616613388062,10.001025199890137,0.0,0.0,0.0,0.0,0.0,0.0,0.0,0.0,0.0
1646244019.5109785,7271,1646244019,510719305,,0.0,0.0,0.0,0.0,0.0,0.0,0.0,0.0,0.0,0.0,0.0,0.0,0.0,-0.04507311433553696,-0.08146204799413681,0.022145532071590424,0.0,0.0,0.0,0.0,0.0,0.0,0.0,0.0,0.0,-0.3356410562992096,0.3069230914115906,9.572051048278809,0.0,0.0,0.0,0.0,0.0,0.0,0.0,0.0,0.0
1646244019.5130985,7272,1646244019,512865851,,0.0,0.0,0.0,0.0,0.0,0.0,0.0,0.0,0.0,0.0,0.0,0.0,0.0,-0.015245715156197548,-0.07507046312093735,0.02640658989548683,0.0,0.0,0.0,0.0,0.0,0.0,0.0,0.0,0.0,-0.5546153783798218,0.22435897588729858,9.769487380981445,0.0,0.0,0.0,0.0,0.0,0.0,0.0,0.0,0.0
1646244019.5153363,7273,1646244019,515093699,,0.0,0.0,0.0,0.0,0.0,0.0,0.0,0.0,0.0,0.0,0.0,0.0,0.0,-0.026963621377944946,-0.08039677888154984,0.002970772795379162,0.0,0.0,0.0,0.0,0.0,0.0,0.0,0.0,0.0,-0.5671795010566711,0.6569231152534485,10.05666732788086,0.0,0.0,0.0,0.0,0.0,0.0,0.0,0.0,0.0
1646244019.5175154,7274,1646244019,517243128,,0.0,0.0,0.0,0.0,0.0,0.0,0.0,0.0,0.0,0.0,0.0,0.0,0.0,-0.019506771117448807,-0.08252730965614319,0.0008402442326769233,0.0,0.0,0.0,0.0,0.0,0.0,0.0,0.0,0.0,-0.2153846174478531,0.15794873237609863,9.29564094543457,0.0,0.0,0.0,0.0,0.0,0.0,0.0,0.0,0.0
1646244019.5197887,7275,1646244019,519462441,,0.0,0.0,0.0,0.0,0.0,0.0,0.0,0.0,0.0,0.0,0.0,0.0,0.0,-0.023767828941345215,-0.0867883637547493,0.002970772795379162,0.0,0.0,0.0,0.0,0.0,0.0,0.0,0.0,0.0,-0.005384615622460842,0.4235897660255432,9.110769271850586,0.0,0.0,0.0,0.0,0.0,0.0,0.0,0.0,0.0
1646244019.5219443,7276,1646244019,521682539,,0.0,0.0,0.0,0.0,0.0,0.0,0.0,0.0,0.0,0.0,0.0,0.0,0.0,-0.0077888634987175465,-0.09744101017713547,-0.0034208132419735193,0.0,0.0,0.0,0.0,0.0,0.0,0.0,0.0,0.0,-0.1148717999458313,0.19564102590084076,9.417692184448242,0.0,0.0,0.0,0.0,0.0,0.0,0.0,0.0,0.0
1646244019.5240586,7277,1646244019,523841339,,0.0,0.0,0.0,0.0,0.0,0.0,0.0,0.0,0.0,0.0,0.0,0.0,0.0,0.015646953135728836,-0.10915891826152802,0.004036037251353264,0.0,0.0,0.0,0.0,0.0,0.0,0.0,0.0,0.0,-0.01794871874153614,-0.012564103119075298,9.19692325592041,0.0,0.0,0.0,0.0,0.0,0.0,0.0,0.0,0.0
1646244019.5262744,7278,1646244019,525998939,,0.0,0.0,0.0,0.0,0.0,0.0,0.0,0.0,0.0,0.0,0.0,0.0,0.0,0.003929044120013714,-0.1006368026137352,-0.017269250005483627,0.0,0.0,0.0,0.0,0.0,0.0,0.0,0.0,0.0,-0.4684615433216095,0.47025641798973083,10.340256690979004,0.0,0.0,0.0,0.0,0.0,0.0,0.0,0.0,0.0
1646244019.5284035,7279,1646244019,528163383,,0.0,0.0,0.0,0.0,0.0,0.0,0.0,0.0,0.0,0.0,0.0,0.0,0.0,0.014581688679754734,-0.12194209545850754,0.0232107974588871,0.0,0.0,0.0,0.0,0.0,0.0,0.0,0.0,0.0,-0.7323077321052551,0.3033333420753479,9.837692260742188,0.0,0.0,0.0,0.0,0.0,0.0,0.0,0.0,0.0
1646244019.530653,7280,1646244019,530402951,,0.0,0.0,0.0,0.0,0.0,0.0,0.0,0.0,0.0,0.0,0.0,0.0,0.0,0.015646953135728836,-0.14431264996528625,-0.017269250005483627,0.0,0.0,0.0,0.0,0.0,0.0,0.0,0.0,0.0,0.07538461685180664,0.2997435927391052,9.380000114440918,0.0,0.0,0.0,0.0,0.0,0.0,0.0,0.0,0.0
1646244019.5328538,7281,1646244019,532567074,,0.0,0.0,0.0,0.0,0.0,0.0,0.0,0.0,0.0,0.0,0.0,0.0,0.0,0.03695223852992058,-0.1187463030219078,-0.009812399744987488,0.0,0.0,0.0,0.0,0.0,0.0,0.0,0.0,0.0,-0.19923077523708344,0.26384615898132324,9.487691879272461,0.0,0.0,0.0,0.0,0.0,0.0,0.0,0.0,0.0
1646244019.5349727,7282,1646244019,534710168,,0.0,0.0,0.0,0.0,0.0,0.0,0.0,0.0,0.0,0.0,0.0,0.0,0.0,0.0103206317871809,-0.12939895689487457,0.01575394533574581,0.0,0.0,0.0,0.0,0.0,0.0,0.0,0.0,0.0,-0.44692307710647583,0.1238461583852768,9.559487342834473,0.0,0.0,0.0,0.0,0.0,0.0,0.0,0.0,0.0
1646244019.5372567,7283,1646244019,536917674,,0.0,0.0,0.0,0.0,0.0,0.0,0.0,0.0,0.0,0.0,0.0,0.0,0.0,0.023103805258870125,-0.11341997981071472,0.004036037251353264,0.0,0.0,0.0,0.0,0.0,0.0,0.0,0.0,0.0,-0.6192308068275452,0.28358975052833557,10.568205833435059,0.0,0.0,0.0,0.0,0.0,0.0,0.0,0.0,0.0
1646244019.5393617,7284,1646244019,539093154,,0.0,0.0,0.0,0.0,0.0,0.0,0.0,0.0,0.0,0.0,0.0,0.0,0.0,0.016712216660380363,-0.1325947493314743,0.028537116944789886,0.0,0.0,0.0,0.0,0.0,0.0,0.0,0.0,0.0,-0.2530769407749176,0.20461538434028625,9.875385284423828,0.0,0.0,0.0,0.0,0.0,0.0,0.0,0.0,0.0
1646244019.5421681,7285,1646244019,541320359,,0.0,0.0,0.0,0.0,0.0,0.0,0.0,0.0,0.0,0.0,0.0,0.0,0.0,-0.0024625419173389673,-0.11022418737411499,0.0008402442326769233,0.0,0.0,0.0,0.0,0.0,0.0,0.0,0.0,0.0,-0.08794872462749481,0.18128205835819244,9.369231224060059,0.0,0.0,0.0,0.0,0.0,0.0,0.0,0.0,0.0
1646244019.5440712,7286,1646244019,543671467,,0.0,0.0,0.0,0.0,0.0,0.0,0.0,0.0,0.0,0.0,0.0,0.0,0.0,-0.022702563554048538,-0.1240726187825203,-0.00022502047067973763,0.0,0.0,0.0,0.0,0.0,0.0,0.0,0.0,0.0,0.16333334147930145,-0.20102564990520477,9.469743728637695,0.0,0.0,0.0,0.0,0.0,0.0,0.0,0.0,0.0
1646244019.546286,7287,1646244019,545934723,,0.0,0.0,0.0,0.0,0.0,0.0,0.0,0.0,0.0,0.0,0.0,0.0,0.0,-0.016310978680849075,-0.11128944903612137,0.009362359531223774,0.0,0.0,0.0,0.0,0.0,0.0,0.0,0.0,0.0,0.07000000029802322,0.09692308306694031,9.410512924194336,0.0,0.0,0.0,0.0,0.0,0.0,0.0,0.0,0.0
1646244019.5500157,7288,1646244019,548197237,,0.0,0.0,0.0,0.0,0.0,0.0,0.0,0.0,0.0,0.0,0.0,0.0,0.0,-0.03548574075102806,-0.09744101017713547,-0.0034208132419735193,0.0,0.0,0.0,0.0,0.0,0.0,0.0,0.0,0.0,-0.20820513367652893,-0.17230769991874695,9.528974533081055,0.0,0.0,0.0,0.0,0.0,0.0,0.0,0.0,0.0
1646244019.5507147,7289,1646244019,550402413,,0.0,0.0,0.0,0.0,0.0,0.0,0.0,0.0,0.0,0.0,0.0,0.0,0.0,-0.03548574075102806,-0.07293993979692459,0.02001500315964222,0.0,0.0,0.0,0.0,0.0,0.0,0.0,0.0,0.0,-0.4451282024383545,0.45230770111083984,10.279230117797852,0.0,0.0,0.0,0.0,0.0,0.0,0.0,0.0,0.0
1646244019.5529022,7290,1646244019,552602855,,0.0,0.0,0.0,0.0,0.0,0.0,0.0,0.0,0.0,0.0,0.0,0.0,0.0,-0.04613837972283363,-0.09744101017713547,0.02747185342013836,0.0,0.0,0.0,0.0,0.0,0.0,0.0,0.0,0.0,-0.3482051491737366,0.3571794927120209,9.864616394042969,0.0,0.0,0.0,0.0,0.0,0.0,0.0,0.0,0.0
1646244019.5551393,7291,1646244019,554827404,,0.0,0.0,0.0,0.0,0.0,0.0,0.0,0.0,0.0,0.0,0.0,0.0,0.0,-0.01844150573015213,-0.08146204799413681,0.014688681811094284,0.0,0.0,0.0,0.0,0.0,0.0,0.0,0.0,0.0,-0.20102564990520477,0.18487180769443512,9.832307815551758,0.0,0.0,0.0,0.0,0.0,0.0,0.0,0.0,0.0
1646244019.5575395,7292,1646244019,557094229,,0.0,0.0,0.0,0.0,0.0,0.0,0.0,0.0,0.0,0.0,0.0,0.0,0.0,-0.030159417539834976,-0.0633525550365448,-0.00022502047067973763,0.0,0.0,0.0,0.0,0.0,0.0,0.0,0.0,0.0,0.3948718011379242,0.11307692527770996,9.091026306152344,0.0,0.0,0.0,0.0,0.0,0.0,0.0,0.0,0.0
1646244019.5597038,7293,1646244019,559291928,,0.0,0.0,0.0,0.0,0.0,0.0,0.0,0.0,0.0,0.0,0.0,0.0,0.0,-0.024833092465996742,-0.047373585402965546,0.028537116944789886,0.0,0.0,0.0,0.0,0.0,0.0,0.0,0.0,0.0,-0.18307693302631378,0.05743589997291565,9.582819938659668,0.0,0.0,0.0,0.0,0.0,0.0,0.0,0.0,0.0
1646244019.5619934,7294,1646244019,561496558,,0.0,0.0,0.0,0.0,0.0,0.0,0.0,0.0,0.0,0.0,0.0,0.0,0.0,-0.05039943754673004,-0.054830439388751984,0.018949739634990692,0.0,0.0,0.0,0.0,0.0,0.0,0.0,0.0,0.0,-0.048461541533470154,0.3500000238418579,9.536153793334961,0.0,0.0,0.0,0.0,0.0,0.0,0.0,0.0,0.0
1646244019.564154,7295,1646244019,563715827,,0.0,0.0,0.0,0.0,0.0,0.0,0.0,0.0,0.0,0.0,0.0,0.0,0.0,-0.014180450700223446,-0.026068301871418953,0.010427623987197876,0.0,0.0,0.0,0.0,0.0,0.0,0.0,0.0,0.0,0.07000000029802322,0.10230769217014313,9.738973617553711,0.0,0.0,0.0,0.0,0.0,0.0,0.0,0.0,0.0
1646244019.5663378,7296,1646244019,565913707,,0.0,0.0,0.0,0.0,0.0,0.0,0.0,0.0,0.0,0.0,0.0,0.0,0.0,-0.02589835785329342,-0.04204726591706276,0.02640658989548683,0.0,0.0,0.0,0.0,0.0,0.0,0.0,0.0,0.0,0.4864102602005005,0.22615385055541992,8.904358863830566,0.0,0.0,0.0,0.0,0.0,0.0,0.0,0.0,0.0
1646244019.568587,7297,1646244019,568169699,,0.0,0.0,0.0,0.0,0.0,0.0,0.0,0.0,0.0,0.0,0.0,0.0,0.0,0.0103206317871809,-0.018611449748277664,-0.0012902843300253153,0.0,0.0,0.0,0.0,0.0,0.0,0.0,0.0,0.0,0.9297435879707336,-0.2566666603088379,8.764358520507812,0.0,0.0,0.0,0.0,0.0,0.0,0.0,0.0,0.0
1646244019.5706432,7298,1646244019,570381471,,0.0,0.0,0.0,0.0,0.0,0.0,0.0,0.0,0.0,0.0,0.0,0.0,0.0,-0.022702563554048538,-0.04204726591706276,0.04238555580377579,0.0,0.0,0.0,0.0,0.0,0.0,0.0,0.0,0.0,0.6515384912490845,0.33384618163108826,8.575897216796875,0.0,0.0,0.0,0.0,0.0,0.0,0.0,0.0,0.0
1646244019.573098,7299,1646244019,572613772,,0.0,0.0,0.0,0.0,0.0,0.0,0.0,0.0,0.0,0.0,0.0,0.0,0.0,0.006059573031961918,-0.005828278139233589,-0.0076818703673779964,0.0,0.0,0.0,0.0,0.0,0.0,0.0,0.0,0.0,0.3733333349227905,-0.05923077091574669,9.672564506530762,0.0,0.0,0.0,0.0,0.0,0.0,0.0,0.0,0.0
1646244019.5752237,7300,1646244019,574839451,,0.0,0.0,0.0,0.0,0.0,0.0,0.0,0.0,0.0,0.0,0.0,0.0,0.0,0.00712483748793602,-0.03032935969531536,0.01255815289914608,0.0,0.0,0.0,0.0,0.0,0.0,0.0,0.0,0.0,0.29615384340286255,-0.09692308306694031,9.09820556640625,0.0,0.0,0.0,0.0,0.0,0.0,0.0,0.0,0.0
1646244019.5774426,7301,1646244019,577068226,,0.0,0.0,0.0,0.0,0.0,0.0,0.0,0.0,0.0,0.0,0.0,0.0,0.0,-0.0077888634987175465,-0.017546184360980988,-0.0162039864808321,0.0,0.0,0.0,0.0,0.0,0.0,0.0,0.0,0.0,0.12743589282035828,0.21000000834465027,9.997435569763184,0.0,0.0,0.0,0.0,0.0,0.0,0.0,0.0,0.0
1646244019.579781,7302,1646244019,579373046,,0.0,0.0,0.0,0.0,0.0,0.0,0.0,0.0,0.0,0.0,0.0,0.0,0.0,-0.0003320134710520506,-0.014350391924381256,0.03386344015598297,0.0,0.0,0.0,0.0,0.0,0.0,0.0,0.0,0.0,0.2476923167705536,-0.10769230872392654,9.326153755187988,0.0,0.0,0.0,0.0,0.0,0.0,0.0,0.0,0.0
1646244019.5819345,7303,1646244019,581577071,,0.0,0.0,0.0,0.0,0.0,0.0,0.0,0.0,0.0,0.0,0.0,0.0,0.0,-0.0067235990427434444,0.011215953156352043,0.00723183061927557,0.0,0.0,0.0,0.0,0.0,0.0,0.0,0.0,0.0,0.4684615433216095,0.1884615421295166,9.602563858032227,0.0,0.0,0.0,0.0,0.0,0.0,0.0,0.0,0.0
1646244019.5841641,7304,1646244019,583802005,,0.0,0.0,0.0,0.0,0.0,0.0,0.0,0.0,0.0,0.0,0.0,0.0,0.0,-0.0067235990427434444,0.01441174652427435,0.004036037251353264,0.0,0.0,0.0,0.0,0.0,0.0,0.0,0.0,0.0,0.8507692813873291,-0.23692308366298676,8.84871768951416,0.0,0.0,0.0,0.0,0.0,0.0,0.0,0.0,0.0
1646244019.5866995,7305,1646244019,586131056,,0.0,0.0,0.0,0.0,0.0,0.0,0.0,0.0,0.0,0.0,0.0,0.0,0.0,-0.020572034642100334,-0.0047630127519369125,0.02001500315964222,0.0,0.0,0.0,0.0,0.0,0.0,0.0,0.0,0.0,0.7789744138717651,-0.06820512562990189,8.954615592956543,0.0,0.0,0.0,0.0,0.0,0.0,0.0,0.0,0.0
1646244019.5887246,7306,1646244019,588374693,,0.0,0.0,0.0,0.0,0.0,0.0,0.0,0.0,0.0,0.0,0.0,0.0,0.0,0.011385894380509853,0.018672803416848183,-0.009812399744987488,0.0,0.0,0.0,0.0,0.0,0.0,0.0,0.0,0.0,0.17589744925498962,0.032307691872119904,9.907692909240723,0.0,0.0,0.0,0.0,0.0,0.0,0.0,0.0,0.0
1646244019.5924127,7307,1646244019,590677549,,0.0,0.0,0.0,0.0,0.0,0.0,0.0,0.0,0.0,0.0,0.0,0.0,0.0,-0.028028886765241623,0.025064390152692795,0.008297095075249672,0.0,0.0,0.0,0.0,0.0,0.0,0.0,0.0,0.0,0.787948727607727,-0.3948718011379242,9.125127792358398,0.0,0.0,0.0,0.0,0.0,0.0,0.0,0.0,0.0
1646244019.5934281,7308,1646244019,593010828,,0.0,0.0,0.0,0.0,0.0,0.0,0.0,0.0,0.0,0.0,0.0,0.0,0.0,-0.009919392876327038,0.03358650580048561,-0.011942928656935692,0.0,0.0,0.0,0.0,0.0,0.0,0.0,0.0,0.0,0.6533333659172058,-0.01794871874153614,9.308204650878906,0.0,0.0,0.0,0.0,0.0,0.0,0.0,0.0,0.0
1646244019.5956028,7309,1646244019,595268808,,0.0,0.0,0.0,0.0,0.0,0.0,0.0,0.0,0.0,0.0,0.0,0.0,0.0,-0.0067235990427434444,0.029325447976589203,0.002970772795379162,0.0,0.0,0.0,0.0,0.0,0.0,0.0,0.0,0.0,0.9441025853157043,-0.5007692575454712,8.94564151763916,0.0,0.0,0.0,0.0,0.0,0.0,0.0,0.0,0.0
1646244019.5979466,7310,1646244019,597510491,,0.0,0.0,0.0,0.0,0.0,0.0,0.0,0.0,0.0,0.0,0.0,0.0,0.0,0.0007332512177526951,0.0527612641453743,-0.0023555487859994173,0.0,0.0,0.0,0.0,0.0,0.0,0.0,0.0,0.0,0.6515384912490845,0.19025641679763794,9.667179107666016,0.0,0.0,0.0,0.0,0.0,0.0,0.0,0.0,0.0
1646244019.6001904,7311,1646244019,599715685,,0.0,0.0,0.0,0.0,0.0,0.0,0.0,0.0,0.0,0.0,0.0,0.0,0.0,-0.0035278063733130693,0.04850020632147789,-0.02366083674132824,0.0,0.0,0.0,0.0,0.0,0.0,0.0,0.0,0.0,0.5653846263885498,-0.2153846174478531,9.543333053588867,0.0,0.0,0.0,0.0,0.0,0.0,0.0,0.0,0.0
1646244019.6022055,7312,1646244019,601908043,,0.0,0.0,0.0,0.0,0.0,0.0,0.0,0.0,0.0,0.0,0.0,0.0,0.0,-0.0024625419173389673,0.04423915222287178,-0.005551342852413654,0.0,0.0,0.0,0.0,0.0,0.0,0.0,0.0,0.0,0.26025640964508057,-0.23153845965862274,10.223589897155762,0.0,0.0,0.0,0.0,0.0,0.0,0.0,0.0,0.0
1646244019.6045592,7313,1646244019,604133342,,0.0,0.0,0.0,0.0,0.0,0.0,0.0,0.0,0.0,0.0,0.0,0.0,0.0,0.023103805258870125,0.07193602621555328,-0.006616605911403894,0.0,0.0,0.0,0.0,0.0,0.0,0.0,0.0,0.0,0.17769230902194977,0.12923076748847961,10.306154251098633,0.0,0.0,0.0,0.0,0.0,0.0,0.0,0.0,0.0
1646244019.6069832,7314,1646244019,606473325,,0.0,0.0,0.0,0.0,0.0,0.0,0.0,0.0,0.0,0.0,0.0,0.0,0.0,0.011385894380509853,0.06341390311717987,0.01575394533574581,0.0,0.0,0.0,0.0,0.0,0.0,0.0,0.0,0.0,0.4810256361961365,-0.27820512652397156,9.740769386291504,0.0,0.0,0.0,0.0,0.0,0.0,0.0,0.0,0.0
1646244019.6089926,7315,1646244019,608679383,,0.0,0.0,0.0,0.0,0.0,0.0,0.0,0.0,0.0,0.0,0.0,0.0,0.0,0.0028637798968702555,0.04850020632147789,-0.006616605911403894,0.0,0.0,0.0,0.0,0.0,0.0,0.0,0.0,0.0,0.6964102983474731,0.10410256683826447,9.769487380981445,0.0,0.0,0.0,0.0,0.0,0.0,0.0,0.0,0.0
1646244019.611334,7316,1646244019,610959580,,0.0,0.0,0.0,0.0,0.0,0.0,0.0,0.0,0.0,0.0,0.0,0.0,0.0,0.026299597695469856,0.061283376067876816,-0.01087766420096159,0.0,0.0,0.0,0.0,0.0,0.0,0.0,0.0,0.0,0.8256410360336304,-0.47564104199409485,9.292051315307617,0.0,0.0,0.0,0.0,0.0,0.0,0.0,0.0,0.0
1646244019.613686,7317,1646244019,613204197,,0.0,0.0,0.0,0.0,0.0,0.0,0.0,0.0,0.0,0.0,0.0,0.0,0.0,0.008190101943910122,0.061283376067876816,0.002970772795379162,0.0,0.0,0.0,0.0,0.0,0.0,0.0,0.0,0.0,0.6856410503387451,-0.046666666865348816,9.532564163208008,0.0,0.0,0.0,0.0,0.0,0.0,0.0,0.0,0.0
1646244019.6158085,7318,1646244019,615434486,,0.0,0.0,0.0,0.0,0.0,0.0,0.0,0.0,0.0,0.0,0.0,0.0,0.0,0.012451158836483955,0.10495921224355698,-0.013008194044232368,0.0,0.0,0.0,0.0,0.0,0.0,0.0,0.0,0.0,0.3679487407207489,-0.3087179660797119,9.848461151123047,0.0,0.0,0.0,0.0,0.0,0.0,0.0,0.0,0.0
1646244019.6181312,7319,1646244019,617645817,,0.0,0.0,0.0,0.0,0.0,0.0,0.0,0.0,0.0,0.0,0.0,0.0,0.0,0.019908009096980095,0.06447917222976685,-0.015138722956180573,0.0,0.0,0.0,0.0,0.0,0.0,0.0,0.0,0.0,0.19923077523708344,-0.3141025900840759,9.907692909240723,0.0,0.0,0.0,0.0,0.0,0.0,0.0,0.0,0.0
1646244019.6200798,7320,1646244019,619841632,,0.0,0.0,0.0,0.0,0.0,0.0,0.0,0.0,0.0,0.0,0.0,0.0,0.0,0.001798515673726797,0.09963290393352509,-0.0076818703673779964,0.0,0.0,0.0,0.0,0.0,0.0,0.0,0.0,0.0,-0.07179487496614456,0.08794872462749481,10.295385360717773,0.0,0.0,0.0,0.0,0.0,0.0,0.0,0.0,0.0
1646244019.6225436,7321,1646244019,622044752,,0.0,0.0,0.0,0.0,0.0,0.0,0.0,0.0,0.0,0.0,0.0,0.0,0.0,0.006059573031961918,0.09111078828573227,-0.03431348130106926,0.0,0.0,0.0,0.0,0.0,0.0,0.0,0.0,0.0,0.6048718094825745,-0.5779487490653992,9.128717422485352,0.0,0.0,0.0,0.0,0.0,0.0,0.0,0.0,0.0
1646244019.6246324,7322,1646244019,624246089,,0.0,0.0,0.0,0.0,0.0,0.0,0.0,0.0,0.0,0.0,0.0,0.0,0.0,-0.0067235990427434444,0.08684972673654556,-0.04496612399816513,0.0,0.0,0.0,0.0,0.0,0.0,0.0,0.0,0.0,0.19205129146575928,-0.05564102530479431,10.020769119262695,0.0,0.0,0.0,0.0,0.0,0.0,0.0,0.0,0.0
1646244019.6269023,7323,1646244019,626490346,,0.0,0.0,0.0,0.0,0.0,0.0,0.0,0.0,0.0,0.0,0.0,0.0,0.0,0.001798515673726797,0.11987292021512985,-0.00022502047067973763,0.0,0.0,0.0,0.0,0.0,0.0,0.0,0.0,0.0,-0.048461541533470154,-0.21897436678409576,10.220000267028809,0.0,0.0,0.0,0.0,0.0,0.0,0.0,0.0,0.0
1646244019.6294124,7324,1646244019,628758972,,0.0,0.0,0.0,0.0,0.0,0.0,0.0,0.0,0.0,0.0,0.0,0.0,0.0,0.014581688679754734,0.13478662073612213,-0.008747135289013386,0.0,0.0,0.0,0.0,0.0,0.0,0.0,0.0,0.0,-0.00897435937076807,-0.14358974993228912,10.318717956542969,0.0,0.0,0.0,0.0,0.0,0.0,0.0,0.0,0.0
1646244019.6313508,7325,1646244019,630992464,,0.0,0.0,0.0,0.0,0.0,0.0,0.0,0.0,0.0,0.0,0.0,0.0,0.0,-0.028028886765241623,0.1177423894405365,-0.02685662917792797,0.0,0.0,0.0,0.0,0.0,0.0,0.0,0.0,0.0,0.2656410336494446,-0.13461539149284363,9.852051734924316,0.0,0.0,0.0,0.0,0.0,0.0,0.0,0.0,0.0
1646244019.6342835,7326,1646244019,633221076,,0.0,0.0,0.0,0.0,0.0,0.0,0.0,0.0,0.0,0.0,0.0,0.0,0.0,-0.037616267800331116,0.11880765110254288,-0.01087766420096159,0.0,0.0,0.0,0.0,0.0,0.0,0.0,0.0,0.0,0.6246154308319092,-0.3769230842590332,9.299230575561523,0.0,0.0,0.0,0.0,0.0,0.0,0.0,0.0,0.0
1646244019.635719,7327,1646244019,635416856,,0.0,0.0,0.0,0.0,0.0,0.0,0.0,0.0,0.0,0.0,0.0,0.0,0.0,-0.016310978680849075,0.13052555918693542,-0.03431348130106926,0.0,0.0,0.0,0.0,0.0,0.0,0.0,0.0,0.0,0.5887179374694824,-0.2620512843132019,9.058717727661133,0.0,0.0,0.0,0.0,0.0,0.0,0.0,0.0,0.0
1646244019.6380966,7328,1646244019,637674936,,0.0,0.0,0.0,0.0,0.0,0.0,0.0,0.0,0.0,0.0,0.0,0.0,0.0,-0.0067235990427434444,0.1454392522573471,-0.018334513530135155,0.0,0.0,0.0,0.0,0.0,0.0,0.0,0.0,0.0,0.6964102983474731,-0.3410256505012512,9.080256462097168,0.0,0.0,0.0,0.0,0.0,0.0,0.0,0.0,0.0
1646244019.640386,7329,1646244019,639928839,,0.0,0.0,0.0,0.0,0.0,0.0,0.0,0.0,0.0,0.0,0.0,0.0,0.0,0.00712483748793602,0.15715718269348145,-0.024726100265979767,0.0,0.0,0.0,0.0,0.0,0.0,0.0,0.0,0.0,0.27282050251960754,-0.06641025841236115,9.690512657165527,0.0,0.0,0.0,0.0,0.0,0.0,0.0,0.0,0.0
1646244019.6425493,7330,1646244019,642188172,,0.0,0.0,0.0,0.0,0.0,0.0,0.0,0.0,0.0,0.0,0.0,0.0,0.0,-0.012049921788275242,0.12200344353914261,-0.02046504244208336,0.0,0.0,0.0,0.0,0.0,0.0,0.0,0.0,0.0,-0.1884615421295166,-0.11846154183149338,10.05307674407959,0.0,0.0,0.0,0.0,0.0,0.0,0.0,0.0,0.0
1646244019.6447592,7331,1646244019,644417597,,0.0,0.0,0.0,0.0,0.0,0.0,0.0,0.0,0.0,0.0,0.0,0.0,0.0,0.019908009096980095,0.12093818187713623,-0.0162039864808321,0.0,0.0,0.0,0.0,0.0,0.0,0.0,0.0,0.0,-0.1058974415063858,0.16871795058250427,10.25948715209961,0.0,0.0,0.0,0.0,0.0,0.0,0.0,0.0,0.0
1646244019.6471095,7332,1646244019,646661898,,0.0,0.0,0.0,0.0,0.0,0.0,0.0,0.0,0.0,0.0,0.0,0.0,0.0,0.026299597695469856,0.1273297667503357,-0.011942928656935692,0.0,0.0,0.0,0.0,0.0,0.0,0.0,0.0,0.0,0.10230769217014313,0.19205129146575928,10.29897403717041,0.0,0.0,0.0,0.0,0.0,0.0,0.0,0.0,0.0
1646244019.6494272,7333,1646244019,648894643,,0.0,0.0,0.0,0.0,0.0,0.0,0.0,0.0,0.0,0.0,0.0,0.0,0.0,0.03375644609332085,0.1038939505815506,-0.01939977891743183,0.0,0.0,0.0,0.0,0.0,0.0,0.0,0.0,0.0,0.32307693362236023,-0.05923077091574669,9.807180404663086,0.0,0.0,0.0,0.0,0.0,0.0,0.0,0.0,0.0
1646244019.6514049,7334,1646244019,651116327,,0.0,0.0,0.0,0.0,0.0,0.0,0.0,0.0,0.0,0.0,0.0,0.0,0.0,0.05506173521280289,0.09111078828573227,-0.02046504244208336,0.0,0.0,0.0,0.0,0.0,0.0,0.0,0.0,0.0,0.00897435937076807,0.14897435903549194,10.677691459655762,0.0,0.0,0.0,0.0,0.0,0.0,0.0,0.0,0.0
1646244019.6537912,7335,1646244019,653415666,,0.0,0.0,0.0,0.0,0.0,0.0,0.0,0.0,0.0,0.0,0.0,0.0,0.0,0.011385894380509853,0.10176341980695724,0.010427623987197876,0.0,0.0,0.0,0.0,0.0,0.0,0.0,0.0,0.0,-0.2979487180709839,0.09153846651315689,10.167948722839355,0.0,0.0,0.0,0.0,0.0,0.0,0.0,0.0,0.0
1646244019.6560295,7336,1646244019,655651744,,0.0,0.0,0.0,0.0,0.0,0.0,0.0,0.0,0.0,0.0,0.0,0.0,0.0,0.04227856546640396,0.09217604994773865,0.011492888443171978,0.0,0.0,0.0,0.0,0.0,0.0,0.0,0.0,0.0,0.014358974993228912,0.014358974993228912,10.331281661987305,0.0,0.0,0.0,0.0,0.0,0.0,0.0,0.0,0.0
1646244019.6583402,7337,1646244019,657940495,,0.0,0.0,0.0,0.0,0.0,0.0,0.0,0.0,0.0,0.0,0.0,0.0,0.0,0.038017503917217255,0.08365393429994583,0.006166566163301468,0.0,0.0,0.0,0.0,0.0,0.0,0.0,0.0,0.0,-0.06282051652669907,-0.0735897421836853,10.220000267028809,0.0,0.0,0.0,0.0,0.0,0.0,0.0,0.0,0.0
1646244019.6604917,7338,1646244019,660200202,,0.0,0.0,0.0,0.0,0.0,0.0,0.0,0.0,0.0,0.0,0.0,0.0,0.0,0.026299597695469856,0.07513181865215302,-0.00022502047067973763,0.0,0.0,0.0,0.0,0.0,0.0,0.0,0.0,0.0,0.35179489850997925,0.014358974993228912,9.852051734924316,0.0,0.0,0.0,0.0,0.0,0.0,0.0,0.0,0.0
1646244019.662743,7339,1646244019,662436403,,0.0,0.0,0.0,0.0,0.0,0.0,0.0,0.0,0.0,0.0,0.0,0.0,0.0,0.003929044120013714,0.05489179491996765,0.014688681811094284,0.0,0.0,0.0,0.0,0.0,0.0,0.0,0.0,0.0,0.21000000834465027,-0.2476923167705536,9.762307167053223,0.0,0.0,0.0,0.0,0.0,0.0,0.0,0.0,0.0
1646244019.6651485,7340,1646244019,664634322,,0.0,0.0,0.0,0.0,0.0,0.0,0.0,0.0,0.0,0.0,0.0,0.0,0.0,0.0103206317871809,0.043173886835575104,0.01575394533574581,0.0,0.0,0.0,0.0,0.0,0.0,0.0,0.0,0.0,0.00897435937076807,-0.36974361538887024,9.90410327911377,0.0,0.0,0.0,0.0,0.0,0.0,0.0,0.0,0.0
1646244019.6673167,7341,1646244019,666828788,,0.0,0.0,0.0,0.0,0.0,0.0,0.0,0.0,0.0,0.0,0.0,0.0,0.0,-0.0013972773449495435,0.027194919064641,-0.01407345850020647,0.0,0.0,0.0,0.0,0.0,0.0,0.0,0.0,0.0,-0.39666667580604553,0.18487180769443512,10.830256462097168,0.0,0.0,0.0,0.0,0.0,0.0,0.0,0.0,0.0
1646244019.6695573,7342,1646244019,669087412,,0.0,0.0,0.0,0.0,0.0,0.0,0.0,0.0,0.0,0.0,0.0,0.0,0.0,0.0007332512177526951,0.017607539892196655,0.0232107974588871,0.0,0.0,0.0,0.0,0.0,0.0,0.0,0.0,0.0,-0.8687179684638977,0.02153846248984337,11.051025390625,0.0,0.0,0.0,0.0,0.0,0.0,0.0,0.0,0.0
1646244019.6718502,7343,1646244019,671326687,,0.0,0.0,0.0,0.0,0.0,0.0,0.0,0.0,0.0,0.0,0.0,0.0,0.0,-0.0067235990427434444,0.011215953156352043,-0.008747135289013386,0.0,0.0,0.0,0.0,0.0,0.0,0.0,0.0,0.0,-0.6676923632621765,0.21358974277973175,11.074358940124512,0.0,0.0,0.0,0.0,0.0,0.0,0.0,0.0,0.0
1646244019.6748078,7344,1646244019,673614741,,0.0,0.0,0.0,0.0,0.0,0.0,0.0,0.0,0.0,0.0,0.0,0.0,0.0,0.0007332512177526951,0.0026938372757285833,0.021080268546938896,0.0,0.0,0.0,0.0,0.0,0.0,0.0,0.0,0.0,-0.9333333373069763,0.2710256576538086,10.835640907287598,0.0,0.0,0.0,0.0,0.0,0.0,0.0,0.0,0.0
1646244019.6772919,7345,1646244019,675841794,,0.0,0.0,0.0,0.0,0.0,0.0,0.0,0.0,0.0,0.0,0.0,0.0,0.0,-0.004593071062117815,0.017607539892196655,-0.009812399744987488,0.0,0.0,0.0,0.0,0.0,0.0,0.0,0.0,0.0,-0.4182051420211792,0.2620512843132019,10.433588981628418,0.0,0.0,0.0,0.0,0.0,0.0,0.0,0.0,0.0
1646244019.6784573,7346,1646244019,678103719,,0.0,0.0,0.0,0.0,0.0,0.0,0.0,0.0,0.0,0.0,0.0,0.0,0.0,-0.0067235990427434444,0.00588963134214282,0.022145532071590424,0.0,0.0,0.0,0.0,0.0,0.0,0.0,0.0,0.0,-0.2925640940666199,-0.007179487496614456,10.00820541381836,0.0,0.0,0.0,0.0,0.0,0.0,0.0,0.0,0.0
1646244019.680778,7347,1646244019,680405098,,0.0,0.0,0.0,0.0,0.0,0.0,0.0,0.0,0.0,0.0,0.0,0.0,0.0,0.02949538826942444,-0.018611449748277664,0.02747185342013836,0.0,0.0,0.0,0.0,0.0,0.0,0.0,0.0,0.0,-0.942307710647583,0.19923077523708344,10.954102516174316,0.0,0.0,0.0,0.0,0.0,0.0,0.0,0.0,0.0
1646244019.6830053,7348,1646244019,682646014,,0.0,0.0,0.0,0.0,0.0,0.0,0.0,0.0,0.0,0.0,0.0,0.0,0.0,0.00925536546856165,-0.005828278139233589,0.017884474247694016,0.0,0.0,0.0,0.0,0.0,0.0,0.0,0.0,0.0,-0.5366666913032532,0.2530769407749176,10.430000305175781,0.0,0.0,0.0,0.0,0.0,0.0,0.0,0.0,0.0
1646244019.6852562,7349,1646244019,684847865,,0.0,0.0,0.0,0.0,0.0,0.0,0.0,0.0,0.0,0.0,0.0,0.0,0.0,0.013516423292458057,-0.01967671327292919,0.018949739634990692,0.0,0.0,0.0,0.0,0.0,0.0,0.0,0.0,0.0,-1.014102578163147,0.12205128371715546,10.774616241455078,0.0,0.0,0.0,0.0,0.0,0.0,0.0,0.0,0.0
1646244019.6875339,7350,1646244019,687091906,,0.0,0.0,0.0,0.0,0.0,0.0,0.0,0.0,0.0,0.0,0.0,0.0,0.0,0.013516423292458057,-0.014350391924381256,0.01575394533574581,0.0,0.0,0.0,0.0,0.0,0.0,0.0,0.0,0.0,-0.3482051491737366,0.2800000011920929,9.798205375671387,0.0,0.0,0.0,0.0,0.0,0.0,0.0,0.0,0.0
1646244019.6896381,7351,1646244019,689306033,,0.0,0.0,0.0,0.0,0.0,0.0,0.0,0.0,0.0,0.0,0.0,0.0,0.0,0.018842745572328568,-0.01967671327292919,0.008297095075249672,0.0,0.0,0.0,0.0,0.0,0.0,0.0,0.0,0.0,-0.3625641167163849,-0.0825641080737114,9.884359359741211,0.0,0.0,0.0,0.0,0.0,0.0,0.0,0.0,0.0
1646244019.692268,7352,1646244019,691809252,,0.0,0.0,0.0,0.0,0.0,0.0,0.0,0.0,0.0,0.0,0.0,0.0,0.0,-0.0024625419173389673,-0.03032935969531536,0.035993970930576324,0.0,0.0,0.0,0.0,0.0,0.0,0.0,0.0,0.0,-0.3266666829586029,0.06461538374423981,11.488974571228027,0.0,0.0,0.0,0.0,0.0,0.0,0.0,0.0,0.0
1646244019.6944852,7353,1646244019,694080866,,0.0,0.0,0.0,0.0,0.0,0.0,0.0,0.0,0.0,0.0,0.0,0.0,0.0,-0.0024625419173389673,-0.03885146975517273,0.01681920886039734,0.0,0.0,0.0,0.0,0.0,0.0,0.0,0.0,0.0,-0.12205128371715546,0.3715384900569916,8.794872283935547,0.0,0.0,0.0,0.0,0.0,0.0,0.0,0.0,0.0
1646244019.6967552,7354,1646244019,696339613,,0.0,0.0,0.0,0.0,0.0,0.0,0.0,0.0,0.0,0.0,0.0,0.0,0.0,-0.0024625419173389673,-0.06654834747314453,0.006166566163301468,0.0,0.0,0.0,0.0,0.0,0.0,0.0,0.0,0.0,0.25846153497695923,0.3858974575996399,10.790769577026367,0.0,0.0,0.0,0.0,0.0,0.0,0.0,0.0,0.0
1646244019.6989486,7355,1646244019,698581688,,0.0,0.0,0.0,0.0,0.0,0.0,0.0,0.0,0.0,0.0,0.0,0.0,0.0,-0.01844150573015213,-0.06974414736032486,0.008297095075249672,0.0,0.0,0.0,0.0,0.0,0.0,0.0,0.0,0.0,-0.09153846651315689,0.4810256361961365,9.593589782714844,0.0,0.0,0.0,0.0,0.0,0.0,0.0,0.0,0.0
1646244019.7012424,7356,1646244019,700796442,,0.0,0.0,0.0,0.0,0.0,0.0,0.0,0.0,0.0,0.0,0.0,0.0,0.0,-0.03335520997643471,-0.05696096643805504,-0.006616605911403894,0.0,0.0,0.0,0.0,0.0,0.0,0.0,0.0,0.0,0.5761538743972778,0.18307693302631378,9.530769348144531,0.0,0.0,0.0,0.0,0.0,0.0,0.0,0.0,0.0
1646244019.70342,7357,1646244019,703010891,,0.0,0.0,0.0,0.0,0.0,0.0,0.0,0.0,0.0,0.0,0.0,0.0,0.0,-0.026963621377944946,-0.09317995607852936,-0.00022502047067973763,0.0,0.0,0.0,0.0,0.0,0.0,0.0,0.0,0.0,-0.7574359178543091,0.3805128335952759,9.941795349121094,0.0,0.0,0.0,0.0,0.0,0.0,0.0,0.0,0.0
1646244019.7057185,7358,1646244019,705226370,,0.0,0.0,0.0,0.0,0.0,0.0,0.0,0.0,0.0,0.0,0.0,0.0,0.0,-0.028028886765241623,-0.091049425303936,-0.022595571354031563,0.0,0.0,0.0,0.0,0.0,0.0,0.0,0.0,0.0,0.2207692414522171,0.19025641679763794,10.203845977783203,0.0,0.0,0.0,0.0,0.0,0.0,0.0,0.0,0.0
1646244019.708029,7359,1646244019,707569418,,0.0,0.0,0.0,0.0,0.0,0.0,0.0,0.0,0.0,0.0,0.0,0.0,0.0,-0.02589835785329342,-0.10596312582492828,0.005101301707327366,0.0,0.0,0.0,0.0,0.0,0.0,0.0,0.0,0.0,0.025128206238150597,-0.16871795058250427,8.728461265563965,0.0,0.0,0.0,0.0,0.0,0.0,0.0,0.0,0.0
1646244019.7103713,7360,1646244019,709861558,,0.0,0.0,0.0,0.0,0.0,0.0,0.0,0.0,0.0,0.0,0.0,0.0,0.0,-0.0429425872862339,-0.10170207172632217,-0.00022502047067973763,0.0,0.0,0.0,0.0,0.0,0.0,0.0,0.0,0.0,-0.11307692527770996,0.2925640940666199,8.922307968139648,0.0,0.0,0.0,0.0,0.0,0.0,0.0,0.0,0.0
1646244019.7125525,7361,1646244019,712143825,,0.0,0.0,0.0,0.0,0.0,0.0,0.0,0.0,0.0,0.0,0.0,0.0,0.0,-0.04400784894824028,-0.12300735712051392,-0.011942928656935692,0.0,0.0,0.0,0.0,0.0,0.0,0.0,0.0,0.0,-0.7341026067733765,0.34282052516937256,9.749743461608887,0.0,0.0,0.0,0.0,0.0,0.0,0.0,0.0,0.0
1646244019.7147722,7362,1646244019,714352302,,0.0,0.0,0.0,0.0,0.0,0.0,0.0,0.0,0.0,0.0,0.0,0.0,0.0,-0.005658335518091917,-0.11555050313472748,-0.021530307829380035,0.0,0.0,0.0,0.0,0.0,0.0,0.0,0.0,0.0,-0.9082051515579224,0.7323077321052551,10.207435607910156,0.0,0.0,0.0,0.0,0.0,0.0,0.0,0.0,0.0
1646244019.7171903,7363,1646244019,716597081,,0.0,0.0,0.0,0.0,0.0,0.0,0.0,0.0,0.0,0.0,0.0,0.0,0.0,-0.017376242205500603,-0.11341997981071472,-0.03644401207566261,0.0,0.0,0.0,0.0,0.0,0.0,0.0,0.0,0.0,-0.5779487490653992,0.15256410837173462,10.785385131835938,0.0,0.0,0.0,0.0,0.0,0.0,0.0,0.0,0.0
1646244019.7205894,7364,1646244019,718820673,,0.0,0.0,0.0,0.0,0.0,0.0,0.0,0.0,0.0,0.0,0.0,0.0,0.0,-0.0013972773449495435,-0.11555050313472748,-0.013008194044232368,0.0,0.0,0.0,0.0,0.0,0.0,0.0,0.0,0.0,-0.7179487347602844,0.3410256505012512,9.873589515686035,0.0,0.0,0.0,0.0,0.0,0.0,0.0,0.0,0.0
1646244019.7215893,7365,1646244019,721091427,,0.0,0.0,0.0,0.0,0.0,0.0,0.0,0.0,0.0,0.0,0.0,0.0,0.0,0.001798515673726797,-0.09850627928972244,-0.00022502047067973763,0.0,0.0,0.0,0.0,0.0,0.0,0.0,0.0,0.0,-0.31589746475219727,0.4038461744785309,9.586410522460938,0.0,0.0,0.0,0.0,0.0,0.0,0.0,0.0,0.0
1646244019.7240262,7366,1646244019,723304754,,0.0,0.0,0.0,0.0,0.0,0.0,0.0,0.0,0.0,0.0,0.0,0.0,0.0,0.01777748018503189,-0.11022418737411499,-0.01087766420096159,0.0,0.0,0.0,0.0,0.0,0.0,0.0,0.0,0.0,-0.05384615436196327,0.07897436618804932,9.415897369384766,0.0,0.0,0.0,0.0,0.0,0.0,0.0,0.0,0.0
1646244019.7259073,7367,1646244019,725564370,,0.0,0.0,0.0,0.0,0.0,0.0,0.0,0.0,0.0,0.0,0.0,0.0,0.0,0.03162591904401779,-0.10809365659952164,-0.01407345850020647,0.0,0.0,0.0,0.0,0.0,0.0,0.0,0.0,0.0,-0.7376923561096191,0.2674359083175659,10.026153564453125,0.0,0.0,0.0,0.0,0.0,0.0,0.0,0.0,0.0
1646244019.7280862,7368,1646244019,727805485,,0.0,0.0,0.0,0.0,0.0,0.0,0.0,0.0,0.0,0.0,0.0,0.0,0.0,0.016712216660380363,-0.11661577224731445,-0.02046504244208336,0.0,0.0,0.0,0.0,0.0,0.0,0.0,0.0,0.0,-0.2566666603088379,0.07538461685180664,9.331538200378418,0.0,0.0,0.0,0.0,0.0,0.0,0.0,0.0,0.0
1646244019.7303288,7369,1646244019,729997624,,0.0,0.0,0.0,0.0,0.0,0.0,0.0,0.0,0.0,0.0,0.0,0.0,0.0,0.03695223852992058,-0.11661577224731445,0.018949739634990692,0.0,0.0,0.0,0.0,0.0,0.0,0.0,0.0,0.0,-0.6156410574913025,0.6892307996749878,10.124872207641602,0.0,0.0,0.0,0.0,0.0,0.0,0.0,0.0,0.0
1646244019.7326221,7370,1646244019,732218803,,0.0,0.0,0.0,0.0,0.0,0.0,0.0,0.0,0.0,0.0,0.0,0.0,0.0,0.015646953135728836,-0.12620314955711365,-0.031117688864469528,0.0,0.0,0.0,0.0,0.0,0.0,0.0,0.0,0.0,-0.1651282161474228,0.34641027450561523,9.074872016906738,0.0,0.0,0.0,0.0,0.0,0.0,0.0,0.0,0.0
1646244019.7346504,7371,1646244019,734422656,,0.0,0.0,0.0,0.0,0.0,0.0,0.0,0.0,0.0,0.0,0.0,0.0,0.0,0.02097327448427677,-0.10702838748693466,0.017884474247694016,0.0,0.0,0.0,0.0,0.0,0.0,0.0,0.0,0.0,0.05384615436196327,-0.24589744210243225,8.699743270874023,0.0,0.0,0.0,0.0,0.0,0.0,0.0,0.0,0.0
1646244019.737229,7372,1646244019,736664315,,0.0,0.0,0.0,0.0,0.0,0.0,0.0,0.0,0.0,0.0,0.0,0.0,0.0,0.016712216660380363,-0.09317995607852936,0.009362359531223774,0.0,0.0,0.0,0.0,0.0,0.0,0.0,0.0,0.0,-0.1058974415063858,0.29615384340286255,10.300769805908203,0.0,0.0,0.0,0.0,0.0,0.0,0.0,0.0,0.0
1646244019.7393358,7373,1646244019,738937864,,0.0,0.0,0.0,0.0,0.0,0.0,0.0,0.0,0.0,0.0,0.0,0.0,0.0,-0.012049921788275242,-0.08998416364192963,0.013623417355120182,0.0,0.0,0.0,0.0,0.0,0.0,0.0,0.0,0.0,-0.3500000238418579,0.3302564322948456,9.399744033813477,0.0,0.0,0.0,0.0,0.0,0.0,0.0,0.0,0.0
1646244019.7415757,7374,1646244019,741149157,,0.0,0.0,0.0,0.0,0.0,0.0,0.0,0.0,0.0,0.0,0.0,0.0,0.0,-0.005658335518091917,-0.10276733338832855,-0.017269250005483627,0.0,0.0,0.0,0.0,0.0,0.0,0.0,0.0,0.0,-0.7035897970199585,0.6784615516662598,9.90589714050293,0.0,0.0,0.0,0.0,0.0,0.0,0.0,0.0,0.0
1646244019.7438858,7375,1646244019,743431230,,0.0,0.0,0.0,0.0,0.0,0.0,0.0,0.0,0.0,0.0,0.0,0.0,0.0,-0.0429425872862339,-0.08998416364192963,0.02747185342013836,0.0,0.0,0.0,0.0,0.0,0.0,0.0,0.0,0.0,0.10051282495260239,-0.2764102518558502,9.886154174804688,0.0,0.0,0.0,0.0,0.0,0.0,0.0,0.0,0.0
1646244019.746194,7376,1646244019,745676164,,0.0,0.0,0.0,0.0,0.0,0.0,0.0,0.0,0.0,0.0,0.0,0.0,0.0,-0.03228994458913803,-0.07293993979692459,0.025341326370835304,0.0,0.0,0.0,0.0,0.0,0.0,0.0,0.0,0.0,-0.17769230902194977,0.10051282495260239,9.455384254455566,0.0,0.0,0.0,0.0,0.0,0.0,0.0,0.0,0.0
1646244019.748435,7377,1646244019,747932359,,0.0,0.0,0.0,0.0,0.0,0.0,0.0,0.0,0.0,0.0,0.0,0.0,0.0,-0.02589835785329342,-0.0772009864449501,0.008297095075249672,0.0,0.0,0.0,0.0,0.0,0.0,0.0,0.0,0.0,0.14179487526416779,0.10051282495260239,9.20769214630127,0.0,0.0,0.0,0.0,0.0,0.0,0.0,0.0,0.0
1646244019.7505438,7378,1646244019,750161003,,0.0,0.0,0.0,0.0,0.0,0.0,0.0,0.0,0.0,0.0,0.0,0.0,0.0,-0.03974679112434387,-0.10170207172632217,0.024276060983538628,0.0,0.0,0.0,0.0,0.0,0.0,0.0,0.0,0.0,0.08794872462749481,-0.10769230872392654,9.071281433105469,0.0,0.0,0.0,0.0,0.0,0.0,0.0,0.0,0.0
1646244019.7528014,7379,1646244019,752403990,,0.0,0.0,0.0,0.0,0.0,0.0,0.0,0.0,0.0,0.0,0.0,0.0,0.0,-0.030159417539834976,-0.061222027987241745,0.005101301707327366,0.0,0.0,0.0,0.0,0.0,0.0,0.0,0.0,0.0,-0.04307692497968674,0.14358974993228912,9.363846778869629,0.0,0.0,0.0,0.0,0.0,0.0,0.0,0.0,0.0
1646244019.7551942,7380,1646244019,754647941,,0.0,0.0,0.0,0.0,0.0,0.0,0.0,0.0,0.0,0.0,0.0,0.0,0.0,-0.024833092465996742,-0.06228729337453842,0.03812449797987938,0.0,0.0,0.0,0.0,0.0,0.0,0.0,0.0,0.0,0.048461541533470154,0.10051282495260239,9.74256420135498,0.0,0.0,0.0,0.0,0.0,0.0,0.0,0.0,0.0
1646244019.7575128,7381,1646244019,757028540,,0.0,0.0,0.0,0.0,0.0,0.0,0.0,0.0,0.0,0.0,0.0,0.0,0.0,-0.016310978680849075,-0.09424521774053574,0.005101301707327366,0.0,0.0,0.0,0.0,0.0,0.0,0.0,0.0,0.0,0.5025641322135925,0.030512820929288864,8.791281700134277,0.0,0.0,0.0,0.0,0.0,0.0,0.0,0.0,0.0
1646244019.75974,7382,1646244019,759312312,,0.0,0.0,0.0,0.0,0.0,0.0,0.0,0.0,0.0,0.0,0.0,0.0,0.0,-0.01098465733230114,-0.05269990861415863,0.017884474247694016,0.0,0.0,0.0,0.0,0.0,0.0,0.0,0.0,0.0,0.08435897529125214,0.09333333373069763,9.277692794799805,0.0,0.0,0.0,0.0,0.0,0.0,0.0,0.0,0.0
1646244019.762779,7383,1646244019,761587468,,0.0,0.0,0.0,0.0,0.0,0.0,0.0,0.0,0.0,0.0,0.0,0.0,0.0,-0.016310978680849075,-0.039916735142469406,0.021080268546938896,0.0,0.0,0.0,0.0,0.0,0.0,0.0,0.0,0.0,0.33743590116500854,0.05743589997291565,9.10897445678711,0.0,0.0,0.0,0.0,0.0,0.0,0.0,0.0,0.0
1646244019.764124,7384,1646244019,763782193,,0.0,0.0,0.0,0.0,0.0,0.0,0.0,0.0,0.0,0.0,0.0,0.0,0.0,-0.0024625419173389673,-0.03885146975517273,-0.0076818703673779964,0.0,0.0,0.0,0.0,0.0,0.0,0.0,0.0,0.0,0.4738461673259735,0.028717949986457825,8.970768928527832,0.0,0.0,0.0,0.0,0.0,0.0,0.0,0.0,0.0
1646244019.7662752,7385,1646244019,765990502,,0.0,0.0,0.0,0.0,0.0,0.0,0.0,0.0,0.0,0.0,0.0,0.0,0.0,0.003929044120013714,-0.03352515026926994,0.02001500315964222,0.0,0.0,0.0,0.0,0.0,0.0,0.0,0.0,0.0,0.5438461303710938,-0.2566666603088379,8.566923141479492,0.0,0.0,0.0,0.0,0.0,0.0,0.0,0.0,0.0
1646244019.7686195,7386,1646244019,768230357,,0.0,0.0,0.0,0.0,0.0,0.0,0.0,0.0,0.0,0.0,0.0,0.0,0.0,-0.017376242205500603,-0.03885146975517273,0.021080268546938896,0.0,0.0,0.0,0.0,0.0,0.0,0.0,0.0,0.0,0.0735897421836853,0.36076924204826355,9.584615707397461,0.0,0.0,0.0,0.0,0.0,0.0,0.0,0.0,0.0
1646244019.7711048,7387,1646244019,770659841,,0.0,0.0,0.0,0.0,0.0,0.0,0.0,0.0,0.0,0.0,0.0,0.0,0.0,-0.004593071062117815,-0.005828278139233589,0.01575394533574581,0.0,0.0,0.0,0.0,0.0,0.0,0.0,0.0,0.0,0.6605128645896912,-0.18307693302631378,8.776923179626465,0.0,0.0,0.0,0.0,0.0,0.0,0.0,0.0,0.0
1646244019.7733922,7388,1646244019,772920309,,0.0,0.0,0.0,0.0,0.0,0.0,0.0,0.0,0.0,0.0,0.0,0.0,0.0,-0.0013972773449495435,-0.017546184360980988,0.024276060983538628,0.0,0.0,0.0,0.0,0.0,0.0,0.0,0.0,0.0,0.3805128335952759,-0.19205129146575928,9.157435417175293,0.0,0.0,0.0,0.0,0.0,0.0,0.0,0.0,0.0
1646244019.7757165,7389,1646244019,775190891,,0.0,0.0,0.0,0.0,0.0,0.0,0.0,0.0,0.0,0.0,0.0,0.0,0.0,-0.024833092465996742,0.018672803416848183,0.01681920886039734,0.0,0.0,0.0,0.0,0.0,0.0,0.0,0.0,0.0,0.6892307996749878,-0.1382051259279251,8.697948455810547,0.0,0.0,0.0,0.0,0.0,0.0,0.0,0.0,0.0
1646244019.7779036,7390,1646244019,777425139,,0.0,0.0,0.0,0.0,0.0,0.0,0.0,0.0,0.0,0.0,0.0,0.0,0.0,0.00712483748793602,-0.015415656380355358,0.028537116944789886,0.0,0.0,0.0,0.0,0.0,0.0,0.0,0.0,0.0,0.6192308068275452,-0.18487180769443512,8.802051544189453,0.0,0.0,0.0,0.0,0.0,0.0,0.0,0.0,0.0
1646244019.780103,7391,1646244019,779656306,,0.0,0.0,0.0,0.0,0.0,0.0,0.0,0.0,0.0,0.0,0.0,0.0,0.0,-0.02909415028989315,0.00588963134214282,0.029602382332086563,0.0,0.0,0.0,0.0,0.0,0.0,0.0,0.0,0.0,0.8507692813873291,-0.023333333432674408,9.015641212463379,0.0,0.0,0.0,0.0,0.0,0.0,0.0,0.0,0.0
1646244019.7825465,7392,1646244019,781928604,,0.0,0.0,0.0,0.0,0.0,0.0,0.0,0.0,0.0,0.0,0.0,0.0,0.0,0.01777748018503189,0.0026938372757285833,-0.008747135289013386,0.0,0.0,0.0,0.0,0.0,0.0,0.0,0.0,0.0,0.4415384829044342,-0.27282050251960754,9.340513229370117,0.0,0.0,0.0,0.0,0.0,0.0,0.0,0.0,0.0
1646244019.7850173,7393,1646244019,784183155,,0.0,0.0,0.0,0.0,0.0,0.0,0.0,0.0,0.0,0.0,0.0,0.0,0.0,-0.012049921788275242,0.04104335606098175,0.00723183061927557,0.0,0.0,0.0,0.0,0.0,0.0,0.0,0.0,0.0,0.14358974993228912,0.3500000238418579,10.049487113952637,0.0,0.0,0.0,0.0,0.0,0.0,0.0,0.0,0.0
1646244019.7876635,7394,1646244019,786447761,,0.0,0.0,0.0,0.0,0.0,0.0,0.0,0.0,0.0,0.0,0.0,0.0,0.0,-0.024833092465996742,0.021868597716093063,0.014688681811094284,0.0,0.0,0.0,0.0,0.0,0.0,0.0,0.0,0.0,0.28179487586021423,-0.13102564215660095,9.439230918884277,0.0,0.0,0.0,0.0,0.0,0.0,0.0,0.0,0.0
1646244019.7894318,7395,1646244019,788726395,,0.0,0.0,0.0,0.0,0.0,0.0,0.0,0.0,0.0,0.0,0.0,0.0,0.0,-0.01098465733230114,0.023999126628041267,-0.0012902843300253153,0.0,0.0,0.0,0.0,0.0,0.0,0.0,0.0,0.0,0.3087179660797119,-0.1058974415063858,9.719230651855469,0.0,0.0,0.0,0.0,0.0,0.0,0.0,0.0,0.0
1646244019.7941697,7396,1646244019,790986977,,0.0,0.0,0.0,0.0,0.0,0.0,0.0,0.0,0.0,0.0,0.0,0.0,0.0,-0.0035278063733130693,0.02612965553998947,-0.008747135289013386,0.0,0.0,0.0,0.0,0.0,0.0,0.0,0.0,0.0,0.6282051801681519,-0.10230769217014313,9.225641250610352,0.0,0.0,0.0,0.0,0.0,0.0,0.0,0.0,0.0
1646244019.7945912,7397,1646244019,793620447,,0.0,0.0,0.0,0.0,0.0,0.0,0.0,0.0,0.0,0.0,0.0,0.0,0.0,-0.024833092465996742,0.05063073709607124,0.029602382332086563,0.0,0.0,0.0,0.0,0.0,0.0,0.0,0.0,0.0,0.7053846716880798,-0.2764102518558502,9.187948226928711,0.0,0.0,0.0,0.0,0.0,0.0,0.0,0.0,0.0
1646244019.796413,7398,1646244019,795903022,,0.0,0.0,0.0,0.0,0.0,0.0,0.0,0.0,0.0,0.0,0.0,0.0,0.0,-0.0035278063733130693,0.03678229823708534,-0.0023555487859994173,0.0,0.0,0.0,0.0,0.0,0.0,0.0,0.0,0.0,0.7771795392036438,0.08615384995937347,9.266922950744629,0.0,0.0,0.0,0.0,0.0,0.0,0.0,0.0,0.0
1646244019.8352761,7399,1646244019,798196606,,0.0,0.0,0.0,0.0,0.0,0.0,0.0,0.0,0.0,0.0,0.0,0.0,0.0,0.011385894380509853,0.03358650580048561,-0.02366083674132824,0.0,0.0,0.0,0.0,0.0,0.0,0.0,0.0,0.0,0.6335898041725159,-0.4792307913303375,9.441025733947754,0.0,0.0,0.0,0.0,0.0,0.0,0.0,0.0,0.0
1646244019.835305,7400,1646244019,800415268,,0.0,0.0,0.0,0.0,0.0,0.0,0.0,0.0,0.0,0.0,0.0,0.0,0.0,-0.0013972773449495435,0.04423915222287178,0.006166566163301468,0.0,0.0,0.0,0.0,0.0,0.0,0.0,0.0,0.0,0.2925640940666199,0.1328205168247223,10.300769805908203,0.0,0.0,0.0,0.0,0.0,0.0,0.0,0.0,0.0
1646244019.8354423,7401,1646244019,802681655,,0.0,0.0,0.0,0.0,0.0,0.0,0.0,0.0,0.0,0.0,0.0,0.0,0.0,0.008190101943910122,0.04104335606098175,-0.011942928656935692,0.0,0.0,0.0,0.0,0.0,0.0,0.0,0.0,0.0,0.27820512652397156,0.16333334147930145,10.234358787536621,0.0,0.0,0.0,0.0,0.0,0.0,0.0,0.0,0.0
1646244019.8354971,7402,1646244019,804926203,,0.0,0.0,0.0,0.0,0.0,0.0,0.0,0.0,0.0,0.0,0.0,0.0,0.0,0.03482171148061752,0.06874022632837296,0.013623417355120182,0.0,0.0,0.0,0.0,0.0,0.0,0.0,0.0,0.0,0.15435898303985596,-0.13641025125980377,10.20025634765625,0.0,0.0,0.0,0.0,0.0,0.0,0.0,0.0,0.0
1646244019.8355794,7403,1646244019,807243649,,0.0,0.0,0.0,0.0,0.0,0.0,0.0,0.0,0.0,0.0,0.0,0.0,0.0,0.0358869731426239,0.03678229823708534,-0.01939977891743183,0.0,0.0,0.0,0.0,0.0,0.0,0.0,0.0,0.0,0.5707692503929138,0.023333333432674408,10.065641403198242,0.0,0.0,0.0,0.0,0.0,0.0,0.0,0.0,0.0
1646244019.8355865,7404,1646244019,809484223,,0.0,0.0,0.0,0.0,0.0,0.0,0.0,0.0,0.0,0.0,0.0,0.0,0.0,0.02523433417081833,0.061283376067876816,-0.02366083674132824,0.0,0.0,0.0,0.0,0.0,0.0,0.0,0.0,0.0,0.2117948830127716,-0.20820513367652893,10.295385360717773,0.0,0.0,0.0,0.0,0.0,0.0,0.0,0.0,0.0
1646244019.8355918,7405,1646244019,811733627,,0.0,0.0,0.0,0.0,0.0,0.0,0.0,0.0,0.0,0.0,0.0,0.0,0.0,-0.0067235990427434444,0.04956547170877457,0.002970772795379162,0.0,0.0,0.0,0.0,0.0,0.0,0.0,0.0,0.0,0.8615384697914124,0.10230769217014313,9.471538543701172,0.0,0.0,0.0,0.0,0.0,0.0,0.0,0.0,0.0
1646244019.8356366,7406,1646244019,813966362,,0.0,0.0,0.0,0.0,0.0,0.0,0.0,0.0,0.0,0.0,0.0,0.0,0.0,0.03695223852992058,0.06234864145517349,-0.0162039864808321,0.0,0.0,0.0,0.0,0.0,0.0,0.0,0.0,0.0,-0.010769231244921684,0.05205128341913223,10.4515380859375,0.0,0.0,0.0,0.0,0.0,0.0,0.0,0.0,0.0
1646244019.8356807,7407,1646244019,816195736,,0.0,0.0,0.0,0.0,0.0,0.0,0.0,0.0,0.0,0.0,0.0,0.0,0.0,0.013516423292458057,0.08578446507453918,-0.03431348130106926,0.0,0.0,0.0,0.0,0.0,0.0,0.0,0.0,0.0,0.4146153926849365,-0.16692309081554413,9.773077011108398,0.0,0.0,0.0,0.0,0.0,0.0,0.0,0.0,0.0
1646244019.8358803,7408,1646244019,818435141,,0.0,0.0,0.0,0.0,0.0,0.0,0.0,0.0,0.0,0.0,0.0,0.0,0.0,0.014581688679754734,0.07726234942674637,-0.043900858610868454,0.0,0.0,0.0,0.0,0.0,0.0,0.0,0.0,0.0,0.8023077249526978,-0.4648717939853668,9.367435455322266,0.0,0.0,0.0,0.0,0.0,0.0,0.0,0.0,0.0
1646244019.8358953,7409,1646244019,820654934,,0.0,0.0,0.0,0.0,0.0,0.0,0.0,0.0,0.0,0.0,0.0,0.0,0.0,0.0103206317871809,0.08258867263793945,-0.0076818703673779964,0.0,0.0,0.0,0.0,0.0,0.0,0.0,0.0,0.0,0.5941025614738464,-0.6300000548362732,8.979743957519531,0.0,0.0,0.0,0.0,0.0,0.0,0.0,0.0,0.0
1646244019.8359022,7410,1646244019,822829437,,0.0,0.0,0.0,0.0,0.0,0.0,0.0,0.0,0.0,0.0,0.0,0.0,0.0,0.018842745572328568,0.10282868891954422,-0.035378746688365936,0.0,0.0,0.0,0.0,0.0,0.0,0.0,0.0,0.0,0.4505128264427185,-0.2297435998916626,9.622307777404785,0.0,0.0,0.0,0.0,0.0,0.0,0.0,0.0,0.0
1646244019.8359914,7411,1646244019,825023148,,0.0,0.0,0.0,0.0,0.0,0.0,0.0,0.0,0.0,0.0,0.0,0.0,0.0,-0.022702563554048538,0.11880765110254288,-0.025791365653276443,0.0,0.0,0.0,0.0,0.0,0.0,0.0,0.0,0.0,0.05743589997291565,-0.32487180829048157,9.93820571899414,0.0,0.0,0.0,0.0,0.0,0.0,0.0,0.0,0.0
1646244019.8360445,7412,1646244019,827202005,,0.0,0.0,0.0,0.0,0.0,0.0,0.0,0.0,0.0,0.0,0.0,0.0,0.0,-0.03655100241303444,0.12946029007434845,-0.0417703278362751,0.0,0.0,0.0,0.0,0.0,0.0,0.0,0.0,0.0,-0.15076923370361328,-0.05743589997291565,10.376152992248535,0.0,0.0,0.0,0.0,0.0,0.0,0.0,0.0,0.0
1646244019.8360856,7413,1646244019,829351889,,0.0,0.0,0.0,0.0,0.0,0.0,0.0,0.0,0.0,0.0,0.0,0.0,0.0,-0.020572034642100334,0.10922027379274368,-0.03644401207566261,0.0,0.0,0.0,0.0,0.0,0.0,0.0,0.0,0.0,0.24589744210243225,-0.3805128335952759,9.837692260742188,0.0,0.0,0.0,0.0,0.0,0.0,0.0,0.0,0.0
1646244019.8361254,7414,1646244019,831505357,,0.0,0.0,0.0,0.0,0.0,0.0,0.0,0.0,0.0,0.0,0.0,0.0,0.0,-0.023767828941345215,0.1273297667503357,-0.0417703278362751,0.0,0.0,0.0,0.0,0.0,0.0,0.0,0.0,0.0,0.26384615898132324,0.1705128252506256,10.268461227416992,0.0,0.0,0.0,0.0,0.0,0.0,0.0,0.0,0.0
1646244019.8362463,7415,1646244019,833665346,,0.0,0.0,0.0,0.0,0.0,0.0,0.0,0.0,0.0,0.0,0.0,0.0,0.0,-0.012049921788275242,0.12839503586292267,-0.039639800786972046,0.0,0.0,0.0,0.0,0.0,0.0,0.0,0.0,0.0,0.4451282024383545,-0.4558974504470825,8.518461227416992,0.0,0.0,0.0,0.0,0.0,0.0,0.0,0.0,0.0
1646244019.8701937,7416,1646244019,835825157,,0.0,0.0,0.0,0.0,0.0,0.0,0.0,0.0,0.0,0.0,0.0,0.0,0.0,-0.020572034642100334,0.10495921224355698,-0.03857453912496567,0.0,0.0,0.0,0.0,0.0,0.0,0.0,0.0,0.0,0.8148718476295471,-0.5079486966133118,9.69948673248291,0.0,0.0,0.0,0.0,0.0,0.0,0.0,0.0,0.0
1646244019.8702097,7417,1646244019,837978198,,0.0,0.0,0.0,0.0,0.0,0.0,0.0,0.0,0.0,0.0,0.0,0.0,0.0,-0.04507311433553696,0.1273297667503357,-0.04922718182206154,0.0,0.0,0.0,0.0,0.0,0.0,0.0,0.0,0.0,0.3948718011379242,0.4558974504470825,9.573845863342285,0.0,0.0,0.0,0.0,0.0,0.0,0.0,0.0,0.0
1646244019.870232,7418,1646244019,840115898,,0.0,0.0,0.0,0.0,0.0,0.0,0.0,0.0,0.0,0.0,0.0,0.0,0.0,-0.02163730002939701,0.1358518898487091,-0.015138722956180573,0.0,0.0,0.0,0.0,0.0,0.0,0.0,0.0,0.0,0.4092307686805725,-0.0412820540368557,8.601025581359863,0.0,0.0,0.0,0.0,0.0,0.0,0.0,0.0,0.0
1646244019.870245,7419,1646244019,842247802,,0.0,0.0,0.0,0.0,0.0,0.0,0.0,0.0,0.0,0.0,0.0,0.0,0.0,-0.023767828941345215,0.12200344353914261,-0.06840194761753082,0.0,0.0,0.0,0.0,0.0,0.0,0.0,0.0,0.0,0.5312820672988892,-0.4182051420211792,9.085640907287598,0.0,0.0,0.0,0.0,0.0,0.0,0.0,0.0,0.0
1646244019.8702505,7420,1646244019,844433664,,0.0,0.0,0.0,0.0,0.0,0.0,0.0,0.0,0.0,0.0,0.0,0.0,0.0,-0.0003320134710520506,0.1358518898487091,-0.02685662917792797,0.0,0.0,0.0,0.0,0.0,0.0,0.0,0.0,0.0,0.5815384387969971,-0.5007692575454712,10.155384063720703,0.0,0.0,0.0,0.0,0.0,0.0,0.0,0.0,0.0
1646244019.8702552,7421,1646244019,846553834,,0.0,0.0,0.0,0.0,0.0,0.0,0.0,0.0,0.0,0.0,0.0,0.0,0.0,0.012451158836483955,0.12519924342632294,-0.017269250005483627,0.0,0.0,0.0,0.0,0.0,0.0,0.0,0.0,0.0,0.3769230842590332,0.32846155762672424,8.477179527282715,0.0,0.0,0.0,0.0,0.0,0.0,0.0,0.0,0.0
1646244019.8702612,7422,1646244019,848694015,,0.0,0.0,0.0,0.0,0.0,0.0,0.0,0.0,0.0,0.0,0.0,0.0,0.0,0.016712216660380363,0.12200344353914261,-0.0417703278362751,0.0,0.0,0.0,0.0,0.0,0.0,0.0,0.0,0.0,0.20820513367652893,-0.012564103119075298,9.94359016418457,0.0,0.0,0.0,0.0,0.0,0.0,0.0,0.0,0.0
1646244019.8702648,7423,1646244019,850810362,,0.0,0.0,0.0,0.0,0.0,0.0,0.0,0.0,0.0,0.0,0.0,0.0,0.0,0.02949538826942444,0.11135080456733704,-0.02046504244208336,0.0,0.0,0.0,0.0,0.0,0.0,0.0,0.0,0.0,-0.10769230872392654,0.17230769991874695,10.905640602111816,0.0,0.0,0.0,0.0,0.0,0.0,0.0,0.0,0.0
1646244019.870282,7424,1646244019,852921529,,0.0,0.0,0.0,0.0,0.0,0.0,0.0,0.0,0.0,0.0,0.0,0.0,0.0,0.018842745572328568,0.08365393429994583,-0.015138722956180573,0.0,0.0,0.0,0.0,0.0,0.0,0.0,0.0,0.0,-0.15794873237609863,-0.19923077523708344,9.677948951721191,0.0,0.0,0.0,0.0,0.0,0.0,0.0,0.0,0.0
1646244019.8703022,7425,1646244019,855040922,,0.0,0.0,0.0,0.0,0.0,0.0,0.0,0.0,0.0,0.0,0.0,0.0,0.0,0.04653962329030037,0.07939288020133972,0.0019055086886510253,0.0,0.0,0.0,0.0,0.0,0.0,0.0,0.0,0.0,-0.11666666716337204,0.3266666829586029,10.327692031860352,0.0,0.0,0.0,0.0,0.0,0.0,0.0,0.0,0.0
1646244019.8703113,7426,1646244019,857161141,,0.0,0.0,0.0,0.0,0.0,0.0,0.0,0.0,0.0,0.0,0.0,0.0,0.0,0.03482171148061752,0.08365393429994583,0.005101301707327366,0.0,0.0,0.0,0.0,0.0,0.0,0.0,0.0,0.0,-0.3320513069629669,0.19205129146575928,10.577178955078125,0.0,0.0,0.0,0.0,0.0,0.0,0.0,0.0,0.0
1646244019.8703148,7427,1646244019,859294856,,0.0,0.0,0.0,0.0,0.0,0.0,0.0,0.0,0.0,0.0,0.0,0.0,0.0,0.03908276557922363,0.0708707645535469,-0.0012902843300253153,0.0,0.0,0.0,0.0,0.0,0.0,0.0,0.0,0.0,-0.05205128341913223,0.12025640904903412,10.482051849365234,0.0,0.0,0.0,0.0,0.0,0.0,0.0,0.0,0.0
1646244019.8703177,7428,1646244019,861507007,,0.0,0.0,0.0,0.0,0.0,0.0,0.0,0.0,0.0,0.0,0.0,0.0,0.0,0.038017503917217255,0.0666097030043602,0.002970772795379162,0.0,0.0,0.0,0.0,0.0,0.0,0.0,0.0,0.0,0.17589744925498962,-0.28717949986457825,9.406923294067383,0.0,0.0,0.0,0.0,0.0,0.0,0.0,0.0,0.0
1646244019.8703253,7429,1646244019,863601517,,0.0,0.0,0.0,0.0,0.0,0.0,0.0,0.0,0.0,0.0,0.0,0.0,0.0,0.0358869731426239,0.058087583631277084,-0.005551342852413654,0.0,0.0,0.0,0.0,0.0,0.0,0.0,0.0,0.0,0.26025640964508057,0.10769230872392654,10.24333381652832,0.0,0.0,0.0,0.0,0.0,0.0,0.0,0.0,0.0
1646244019.8703291,7430,1646244019,865691999,,0.0,0.0,0.0,0.0,0.0,0.0,0.0,0.0,0.0,0.0,0.0,0.0,0.0,0.018842745572328568,0.03358650580048561,-0.021530307829380035,0.0,0.0,0.0,0.0,0.0,0.0,0.0,0.0,0.0,-0.10769230872392654,-0.07179487496614456,10.223589897155762,0.0,0.0,0.0,0.0,0.0,0.0,0.0,0.0,0.0
1646244019.8703356,7431,1646244019,867782545,,0.0,0.0,0.0,0.0,0.0,0.0,0.0,0.0,0.0,0.0,0.0,0.0,0.0,0.026299597695469856,0.031455978751182556,0.011492888443171978,0.0,0.0,0.0,0.0,0.0,0.0,0.0,0.0,0.0,-0.4325641095638275,-0.2117948830127716,10.546667098999023,0.0,0.0,0.0,0.0,0.0,0.0,0.0,0.0,0.0
1646244019.8703687,7432,1646244019,869979961,,0.0,0.0,0.0,0.0,0.0,0.0,0.0,0.0,0.0,0.0,0.0,0.0,0.0,0.027364861220121384,0.015477010980248451,0.009362359531223774,0.0,0.0,0.0,0.0,0.0,0.0,0.0,0.0,0.0,-0.5994871854782104,0.3069230914115906,11.268205642700195,0.0,0.0,0.0,0.0,0.0,0.0,0.0,0.0,0.0
1646244019.872181,7433,1646244019,872065533,,0.0,0.0,0.0,0.0,0.0,0.0,0.0,0.0,0.0,0.0,0.0,0.0,0.0,0.001798515673726797,0.012281217612326145,0.0019055086886510253,0.0,0.0,0.0,0.0,0.0,0.0,0.0,0.0,0.0,-0.11128205060958862,-0.3679487407207489,10.062051773071289,0.0,0.0,0.0,0.0,0.0,0.0,0.0,0.0,0.0
1646244019.8742619,7434,1646244019,874148128,,0.0,0.0,0.0,0.0,0.0,0.0,0.0,0.0,0.0,0.0,0.0,0.0,0.0,0.016712216660380363,0.028260184451937675,0.02640658989548683,0.0,0.0,0.0,0.0,0.0,0.0,0.0,0.0,0.0,-0.43974360823631287,0.13102564215660095,10.55384635925293,0.0,0.0,0.0,0.0,0.0,0.0,0.0,0.0,0.0
1646244019.8763945,7435,1646244019,876280121,,0.0,0.0,0.0,0.0,0.0,0.0,0.0,0.0,0.0,0.0,0.0,0.0,0.0,-0.013115186244249344,0.01973806880414486,-0.008747135289013386,0.0,0.0,0.0,0.0,0.0,0.0,0.0,0.0,0.0,-0.9405128359794617,0.07538461685180664,10.896666526794434,0.0,0.0,0.0,0.0,0.0,0.0,0.0,0.0,0.0
1646244019.8785102,7436,1646244019,878381861,,0.0,0.0,0.0,0.0,0.0,0.0,0.0,0.0,0.0,0.0,0.0,0.0,0.0,0.003929044120013714,-0.03139462321996689,0.004036037251353264,0.0,0.0,0.0,0.0,0.0,0.0,0.0,0.0,0.0,-0.890256404876709,0.28179487586021423,11.191025733947754,0.0,0.0,0.0,0.0,0.0,0.0,0.0,0.0,0.0
1646244019.8807797,7437,1646244019,880475020,,0.0,0.0,0.0,0.0,0.0,0.0,0.0,0.0,0.0,0.0,0.0,0.0,0.0,-0.004593071062117815,0.004824366886168718,0.018949739634990692,0.0,0.0,0.0,0.0,0.0,0.0,0.0,0.0,0.0,-0.6748718023300171,-0.05205128341913223,10.44615364074707,0.0,0.0,0.0,0.0,0.0,0.0,0.0,0.0,0.0
1646244019.882705,7438,1646244019,882628419,,0.0,0.0,0.0,0.0,0.0,0.0,0.0,0.0,0.0,0.0,0.0,0.0,0.0,-0.019506771117448807,-0.01115459855645895,0.02747185342013836,0.0,0.0,0.0,0.0,0.0,0.0,0.0,0.0,0.0,-0.6910256743431091,0.12205128371715546,10.699231147766113,0.0,0.0,0.0,0.0,0.0,0.0,0.0,0.0,0.0
1646244019.8848472,7439,1646244019,884752289,,0.0,0.0,0.0,0.0,0.0,0.0,0.0,0.0,0.0,0.0,0.0,0.0,0.0,0.02097327448427677,-0.026068301871418953,0.013623417355120182,0.0,0.0,0.0,0.0,0.0,0.0,0.0,0.0,0.0,-0.3123077154159546,0.0735897421836853,10.19487190246582,0.0,0.0,0.0,0.0,0.0,0.0,0.0,0.0,0.0
1646244019.886993,7440,1646244019,886848613,,0.0,0.0,0.0,0.0,0.0,0.0,0.0,0.0,0.0,0.0,0.0,0.0,0.0,-0.0067235990427434444,-0.02713356725871563,0.032798174768686295,0.0,0.0,0.0,0.0,0.0,0.0,0.0,0.0,0.0,-0.03589743748307228,0.0412820540368557,9.609743118286133,0.0,0.0,0.0,0.0,0.0,0.0,0.0,0.0,0.0
1646244019.8890934,7441,1646244019,888954457,,0.0,0.0,0.0,0.0,0.0,0.0,0.0,0.0,0.0,0.0,0.0,0.0,0.0,0.004994308575987816,-0.0047630127519369125,-0.0023555487859994173,0.0,0.0,0.0,0.0,0.0,0.0,0.0,0.0,0.0,-0.787948727607727,0.39846155047416687,11.295127868652344,0.0,0.0,0.0,0.0,0.0,0.0,0.0,0.0,0.0
1646244019.8913338,7442,1646244019,891179830,,0.0,0.0,0.0,0.0,0.0,0.0,0.0,0.0,0.0,0.0,0.0,0.0,0.0,-0.004593071062117815,-0.061222027987241745,0.0232107974588871,0.0,0.0,0.0,0.0,0.0,0.0,0.0,0.0,0.0,-0.2853846251964569,-0.12923076748847961,9.880769729614258,0.0,0.0,0.0,0.0,0.0,0.0,0.0,0.0,0.0
1646244019.893415,7443,1646244019,893269075,,0.0,0.0,0.0,0.0,0.0,0.0,0.0,0.0,0.0,0.0,0.0,0.0,0.0,0.012451158836483955,-0.03032935969531536,0.0008402442326769233,0.0,0.0,0.0,0.0,0.0,0.0,0.0,0.0,0.0,-0.13641025125980377,-0.05384615436196327,9.884359359741211,0.0,0.0,0.0,0.0,0.0,0.0,0.0,0.0,0.0
1646244019.895525,7444,1646244019,895354884,,0.0,0.0,0.0,0.0,0.0,0.0,0.0,0.0,0.0,0.0,0.0,0.0,0.0,0.016712216660380363,-0.06015676259994507,0.03386344015598297,0.0,0.0,0.0,0.0,0.0,0.0,0.0,0.0,0.0,-0.35179489850997925,0.12743589282035828,9.381794929504395,0.0,0.0,0.0,0.0,0.0,0.0,0.0,0.0,0.0
1646244019.8975916,7445,1646244019,897440924,,0.0,0.0,0.0,0.0,0.0,0.0,0.0,0.0,0.0,0.0,0.0,0.0,0.0,0.00712483748793602,-0.05696096643805504,0.008297095075249672,0.0,0.0,0.0,0.0,0.0,0.0,0.0,0.0,0.0,-0.895641028881073,0.5366666913032532,10.374359130859375,0.0,0.0,0.0,0.0,0.0,0.0,0.0,0.0,0.0
1646244019.8996878,7446,1646244019,899541702,,0.0,0.0,0.0,0.0,0.0,0.0,0.0,0.0,0.0,0.0,0.0,0.0,0.0,0.003929044120013714,-0.05589570105075836,0.014688681811094284,0.0,0.0,0.0,0.0,0.0,0.0,0.0,0.0,0.0,-0.4038461744785309,-0.07000000029802322,9.760512351989746,0.0,0.0,0.0,0.0,0.0,0.0,0.0,0.0,0.0
1646244019.901832,7447,1646244019,901669742,,0.0,0.0,0.0,0.0,0.0,0.0,0.0,0.0,0.0,0.0,0.0,0.0,0.0,0.01777748018503189,-0.08252730965614319,-0.01087766420096159,0.0,0.0,0.0,0.0,0.0,0.0,0.0,0.0,0.0,-0.8812820911407471,0.7251282334327698,10.309743881225586,0.0,0.0,0.0,0.0,0.0,0.0,0.0,0.0,0.0
1646244019.9039261,7448,1646244019,903798708,,0.0,0.0,0.0,0.0,0.0,0.0,0.0,0.0,0.0,0.0,0.0,0.0,0.0,-0.012049921788275242,-0.05696096643805504,0.013623417355120182,0.0,0.0,0.0,0.0,0.0,0.0,0.0,0.0,0.0,-0.823846161365509,0.2889743745326996,9.622307777404785,0.0,0.0,0.0,0.0,0.0,0.0,0.0,0.0,0.0
1646244019.9062603,7449,1646244019,906065130,,0.0,0.0,0.0,0.0,0.0,0.0,0.0,0.0,0.0,0.0,0.0,0.0,0.0,0.03695223852992058,-0.09211468696594238,-0.00022502047067973763,0.0,0.0,0.0,0.0,0.0,0.0,0.0,0.0,0.0,-0.17230769991874695,0.38948720693588257,9.49128246307373,0.0,0.0,0.0,0.0,0.0,0.0,0.0,0.0,0.0
1646244019.9084501,7450,1646244019,908296137,,0.0,0.0,0.0,0.0,0.0,0.0,0.0,0.0,0.0,0.0,0.0,0.0,0.0,-0.009919392876327038,-0.06974414736032486,0.014688681811094284,0.0,0.0,0.0,0.0,0.0,0.0,0.0,0.0,0.0,-0.7538461685180664,0.21000000834465027,9.95435905456543,0.0,0.0,0.0,0.0,0.0,0.0,0.0,0.0,0.0
1646244019.9105432,7451,1646244019,910399408,,0.0,0.0,0.0,0.0,0.0,0.0,0.0,0.0,0.0,0.0,0.0,0.0,0.0,0.03269118070602417,-0.07826624810695648,0.01255815289914608,0.0,0.0,0.0,0.0,0.0,0.0,0.0,0.0,0.0,-0.5689743757247925,0.5079486966133118,10.121281623840332,0.0,0.0,0.0,0.0,0.0,0.0,0.0,0.0,0.0
1646244019.9128587,7452,1646244019,912726932,,0.0,0.0,0.0,0.0,0.0,0.0,0.0,0.0,0.0,0.0,0.0,0.0,0.0,-0.012049921788275242,-0.08252730965614319,-0.008747135289013386,0.0,0.0,0.0,0.0,0.0,0.0,0.0,0.0,0.0,-0.5043590068817139,0.6928205490112305,10.182308197021484,0.0,0.0,0.0,0.0,0.0,0.0,0.0,0.0,0.0
1646244019.9149806,7453,1646244019,914857033,,0.0,0.0,0.0,0.0,0.0,0.0,0.0,0.0,0.0,0.0,0.0,0.0,0.0,-0.0003320134710520506,-0.09637574851512909,0.018949739634990692,0.0,0.0,0.0,0.0,0.0,0.0,0.0,0.0,0.0,-0.3212820589542389,0.15256410837173462,9.60615348815918,0.0,0.0,0.0,0.0,0.0,0.0,0.0,0.0,0.0
1646244019.9171448,7454,1646244019,916959517,,0.0,0.0,0.0,0.0,0.0,0.0,0.0,0.0,0.0,0.0,0.0,0.0,0.0,0.016712216660380363,-0.08998416364192963,0.013623417355120182,0.0,0.0,0.0,0.0,0.0,0.0,0.0,0.0,0.0,-0.005384615622460842,0.18128205835819244,9.297435760498047,0.0,0.0,0.0,0.0,0.0,0.0,0.0,0.0,0.0
1646244019.919664,7455,1646244019,919220262,,0.0,0.0,0.0,0.0,0.0,0.0,0.0,0.0,0.0,0.0,0.0,0.0,0.0,0.02097327448427677,-0.10702838748693466,0.011492888443171978,0.0,0.0,0.0,0.0,0.0,0.0,0.0,0.0,0.0,-0.08794872462749481,-0.0825641080737114,9.4858980178833,0.0,0.0,0.0,0.0,0.0,0.0,0.0,0.0,0.0
1646244019.9228103,7456,1646244019,921420573,,0.0,0.0,0.0,0.0,0.0,0.0,0.0,0.0,0.0,0.0,0.0,0.0,0.0,0.00712483748793602,-0.09744101017713547,0.0019055086886510253,0.0,0.0,0.0,0.0,0.0,0.0,0.0,0.0,0.0,-0.4594871997833252,0.4774359166622162,10.00820541381836,0.0,0.0,0.0,0.0,0.0,0.0,0.0,0.0,0.0
1646244019.92403,7457,1646244019,923636068,,0.0,0.0,0.0,0.0,0.0,0.0,0.0,0.0,0.0,0.0,0.0,0.0,0.0,0.016712216660380363,-0.08465784043073654,0.005101301707327366,0.0,0.0,0.0,0.0,0.0,0.0,0.0,0.0,0.0,-0.7017949223518372,0.38948720693588257,10.05846118927002,0.0,0.0,0.0,0.0,0.0,0.0,0.0,0.0,0.0
1646244019.926603,7458,1646244019,925867494,,0.0,0.0,0.0,0.0,0.0,0.0,0.0,0.0,0.0,0.0,0.0,0.0,0.0,0.024169068783521652,-0.1006368026137352,0.029602382332086563,0.0,0.0,0.0,0.0,0.0,0.0,0.0,0.0,0.0,-0.6156410574913025,0.6102564334869385,10.164359092712402,0.0,0.0,0.0,0.0,0.0,0.0,0.0,0.0,0.0
1646244019.9284575,7459,1646244019,928074995,,0.0,0.0,0.0,0.0,0.0,0.0,0.0,0.0,0.0,0.0,0.0,0.0,0.0,0.03375644609332085,-0.11235471069812775,-0.00022502047067973763,0.0,0.0,0.0,0.0,0.0,0.0,0.0,0.0,0.0,-0.3356410562992096,0.4738461673259735,9.882563591003418,0.0,0.0,0.0,0.0,0.0,0.0,0.0,0.0,0.0
1646244019.93067,7460,1646244019,930302609,,0.0,0.0,0.0,0.0,0.0,0.0,0.0,0.0,0.0,0.0,0.0,0.0,0.0,0.03908276557922363,-0.11128944903612137,0.018949739634990692,0.0,0.0,0.0,0.0,0.0,0.0,0.0,0.0,0.0,-0.22256410121917725,0.17769230902194977,9.514616012573242,0.0,0.0,0.0,0.0,0.0,0.0,0.0,0.0,0.0
1646244019.9329858,7461,1646244019,932547808,,0.0,0.0,0.0,0.0,0.0,0.0,0.0,0.0,0.0,0.0,0.0,0.0,0.0,0.02097327448427677,-0.09957154095172882,-0.00022502047067973763,0.0,0.0,0.0,0.0,0.0,0.0,0.0,0.0,0.0,-0.6676923632621765,0.5115384459495544,10.270256042480469,0.0,0.0,0.0,0.0,0.0,0.0,0.0,0.0,0.0
1646244019.9352574,7462,1646244019,934761093,,0.0,0.0,0.0,0.0,0.0,0.0,0.0,0.0,0.0,0.0,0.0,0.0,0.0,0.019908009096980095,-0.1048978641629219,-0.009812399744987488,0.0,0.0,0.0,0.0,0.0,0.0,0.0,0.0,0.0,0.048461541533470154,-0.0735897421836853,9.013845443725586,0.0,0.0,0.0,0.0,0.0,0.0,0.0,0.0,0.0
1646244019.9374251,7463,1646244019,937009973,,0.0,0.0,0.0,0.0,0.0,0.0,0.0,0.0,0.0,0.0,0.0,0.0,0.0,0.004994308575987816,-0.091049425303936,0.02001500315964222,0.0,0.0,0.0,0.0,0.0,0.0,0.0,0.0,0.0,-0.41641026735305786,0.5797435641288757,10.04230785369873,0.0,0.0,0.0,0.0,0.0,0.0,0.0,0.0,0.0
1646244019.9396932,7464,1646244019,939241356,,0.0,0.0,0.0,0.0,0.0,0.0,0.0,0.0,0.0,0.0,0.0,0.0,0.0,0.00712483748793602,-0.08891889452934265,0.018949739634990692,0.0,0.0,0.0,0.0,0.0,0.0,0.0,0.0,0.0,-0.03410256281495094,0.0825641080737114,9.607949256896973,0.0,0.0,0.0,0.0,0.0,0.0,0.0,0.0,0.0
1646244019.9419594,7465,1646244019,941491934,,0.0,0.0,0.0,0.0,0.0,0.0,0.0,0.0,0.0,0.0,0.0,0.0,0.0,-0.014180450700223446,-0.091049425303936,0.02640658989548683,0.0,0.0,0.0,0.0,0.0,0.0,0.0,0.0,0.0,-0.30512821674346924,0.08615384995937347,9.520000457763672,0.0,0.0,0.0,0.0,0.0,0.0,0.0,0.0,0.0
1646244019.9444084,7466,1646244019,943753260,,0.0,0.0,0.0,0.0,0.0,0.0,0.0,0.0,0.0,0.0,0.0,0.0,0.0,-0.009919392876327038,-0.09637574851512909,0.03173290938138962,0.0,0.0,0.0,0.0,0.0,0.0,0.0,0.0,0.0,-0.21000000834465027,0.2979487180709839,10.198461532592773,0.0,0.0,0.0,0.0,0.0,0.0,0.0,0.0,0.0
1646244019.9464674,7467,1646244019,946029983,,0.0,0.0,0.0,0.0,0.0,0.0,0.0,0.0,0.0,0.0,0.0,0.0,0.0,-0.009919392876327038,-0.11768103390932083,0.006166566163301468,0.0,0.0,0.0,0.0,0.0,0.0,0.0,0.0,0.0,0.43794873356819153,-0.09871795028448105,8.75538444519043,0.0,0.0,0.0,0.0,0.0,0.0,0.0,0.0,0.0
1646244019.9486601,7468,1646244019,948222292,,0.0,0.0,0.0,0.0,0.0,0.0,0.0,0.0,0.0,0.0,0.0,0.0,0.0,-0.0013972773449495435,-0.11022418737411499,0.025341326370835304,0.0,0.0,0.0,0.0,0.0,0.0,0.0,0.0,0.0,0.4541025757789612,-0.09871795028448105,8.767949104309082,0.0,0.0,0.0,0.0,0.0,0.0,0.0,0.0,0.0
1646244019.9508603,7469,1646244019,950444771,,0.0,0.0,0.0,0.0,0.0,0.0,0.0,0.0,0.0,0.0,0.0,0.0,0.0,-0.019506771117448807,-0.08572310209274292,0.018949739634990692,0.0,0.0,0.0,0.0,0.0,0.0,0.0,0.0,0.0,0.32487180829048157,0.19923077523708344,10.10333251953125,0.0,0.0,0.0,0.0,0.0,0.0,0.0,0.0,0.0
1646244019.953094,7470,1646244019,952687212,,0.0,0.0,0.0,0.0,0.0,0.0,0.0,0.0,0.0,0.0,0.0,0.0,0.0,-0.03228994458913803,-0.07933151721954346,0.029602382332086563,0.0,0.0,0.0,0.0,0.0,0.0,0.0,0.0,0.0,0.05923077091574669,-0.03589743748307228,8.653077125549316,0.0,0.0,0.0,0.0,0.0,0.0,0.0,0.0,0.0
1646244019.9553015,7471,1646244019,954920532,,0.0,0.0,0.0,0.0,0.0,0.0,0.0,0.0,0.0,0.0,0.0,0.0,0.0,-0.041877321898937225,-0.06228729337453842,0.022145532071590424,0.0,0.0,0.0,0.0,0.0,0.0,0.0,0.0,0.0,-0.026923077180981636,0.13461539149284363,10.458718299865723,0.0,0.0,0.0,0.0,0.0,0.0,0.0,0.0,0.0
1646244019.9576876,7472,1646244019,957127516,,0.0,0.0,0.0,0.0,0.0,0.0,0.0,0.0,0.0,0.0,0.0,0.0,0.0,-0.026963621377944946,-0.061222027987241745,0.022145532071590424,0.0,0.0,0.0,0.0,0.0,0.0,0.0,0.0,0.0,-0.1705128252506256,0.14000000059604645,9.475128173828125,0.0,0.0,0.0,0.0,0.0,0.0,0.0,0.0,0.0
1646244019.9599977,7473,1646244019,959341687,,0.0,0.0,0.0,0.0,0.0,0.0,0.0,0.0,0.0,0.0,0.0,0.0,0.0,-0.03228994458913803,-0.0676136165857315,0.02640658989548683,0.0,0.0,0.0,0.0,0.0,0.0,0.0,0.0,0.0,0.05564102530479431,0.26384615898132324,9.10359001159668,0.0,0.0,0.0,0.0,0.0,0.0,0.0,0.0,0.0
1646244019.962006,7474,1646244019,961583959,,0.0,0.0,0.0,0.0,0.0,0.0,0.0,0.0,0.0,0.0,0.0,0.0,0.0,-0.04507311433553696,-0.06441782414913177,0.02640658989548683,0.0,0.0,0.0,0.0,0.0,0.0,0.0,0.0,0.0,0.3912820518016815,-0.32846155762672424,8.640512466430664,0.0,0.0,0.0,0.0,0.0,0.0,0.0,0.0,0.0
1646244019.9655404,7475,1646244019,963852101,,0.0,0.0,0.0,0.0,0.0,0.0,0.0,0.0,0.0,0.0,0.0,0.0,0.0,-0.04081205651164055,-0.044177792966365814,0.018949739634990692,0.0,0.0,0.0,0.0,0.0,0.0,0.0,0.0,0.0,0.5941025614738464,-0.016153845936059952,8.685384750366211,0.0,0.0,0.0,0.0,0.0,0.0,0.0,0.0,0.0
1646244019.9665208,7476,1646244019,966078569,,0.0,0.0,0.0,0.0,0.0,0.0,0.0,0.0,0.0,0.0,0.0,0.0,0.0,-0.01844150573015213,-0.029264096170663834,0.039189763367176056,0.0,0.0,0.0,0.0,0.0,0.0,0.0,0.0,0.0,0.3176923394203186,-0.03410256281495094,8.60820484161377,0.0,0.0,0.0,0.0,0.0,0.0,0.0,0.0,0.0
1646244019.9692752,7477,1646244019,968309786,,0.0,0.0,0.0,0.0,0.0,0.0,0.0,0.0,0.0,0.0,0.0,0.0,0.0,-0.034420475363731384,-0.0036977482959628105,0.028537116944789886,0.0,0.0,0.0,0.0,0.0,0.0,0.0,0.0,0.0,0.15256410837173462,0.3356410562992096,9.505640983581543,0.0,0.0,0.0,0.0,0.0,0.0,0.0,0.0,0.0
1646244019.97088,7478,1646244019,970533373,,0.0,0.0,0.0,0.0,0.0,0.0,0.0,0.0,0.0,0.0,0.0,0.0,0.0,-0.0024625419173389673,-0.02287250943481922,0.01255815289914608,0.0,0.0,0.0,0.0,0.0,0.0,0.0,0.0,0.0,0.40743592381477356,0.005384615622460842,8.6135892868042,0.0,0.0,0.0,0.0,0.0,0.0,0.0,0.0,0.0
1646244019.9731984,7479,1646244019,972729666,,0.0,0.0,0.0,0.0,0.0,0.0,0.0,0.0,0.0,0.0,0.0,0.0,0.0,-0.02909415028989315,0.009085424244403839,0.024276060983538628,0.0,0.0,0.0,0.0,0.0,0.0,0.0,0.0,0.0,-0.10230769217014313,0.003589743748307228,9.656410217285156,0.0,0.0,0.0,0.0,0.0,0.0,0.0,0.0,0.0
1646244019.9752192,7480,1646244019,974928405,,0.0,0.0,0.0,0.0,0.0,0.0,0.0,0.0,0.0,0.0,0.0,0.0,0.0,-0.0077888634987175465,0.028260184451937675,-0.0034208132419735193,0.0,0.0,0.0,0.0,0.0,0.0,0.0,0.0,0.0,0.7933333516120911,0.19025641679763794,8.884614944458008,0.0,0.0,0.0,0.0,0.0,0.0,0.0,0.0,0.0
1646244019.9775968,7481,1646244019,977167214,,0.0,0.0,0.0,0.0,0.0,0.0,0.0,0.0,0.0,0.0,0.0,0.0,0.0,-0.016310978680849075,0.0026938372757285833,0.04984240233898163,0.0,0.0,0.0,0.0,0.0,0.0,0.0,0.0,0.0,0.4648717939853668,-0.2800000011920929,9.022820472717285,0.0,0.0,0.0,0.0,0.0,0.0,0.0,0.0,0.0
1646244019.979749,7482,1646244019,979401138,,0.0,0.0,0.0,0.0,0.0,0.0,0.0,0.0,0.0,0.0,0.0,0.0,0.0,-0.0067235990427434444,0.028260184451937675,0.01575394533574581,0.0,0.0,0.0,0.0,0.0,0.0,0.0,0.0,0.0,0.0735897421836853,0.28717949986457825,9.918461799621582,0.0,0.0,0.0,0.0,0.0,0.0,0.0,0.0,0.0
1646244019.982012,7483,1646244019,981618044,,0.0,0.0,0.0,0.0,0.0,0.0,0.0,0.0,0.0,0.0,0.0,0.0,0.0,-0.016310978680849075,0.03039071336388588,0.01575394533574581,0.0,0.0,0.0,0.0,0.0,0.0,0.0,0.0,0.0,0.24589744210243225,0.16153846681118011,9.990256309509277,0.0,0.0,0.0,0.0,0.0,0.0,0.0,0.0,0.0
1646244019.9843078,7484,1646244019,983872643,,0.0,0.0,0.0,0.0,0.0,0.0,0.0,0.0,0.0,0.0,0.0,0.0,0.0,0.004994308575987816,0.017607539892196655,0.02001500315964222,0.0,0.0,0.0,0.0,0.0,0.0,0.0,0.0,0.0,0.17230769991874695,-0.15256410837173462,9.765897750854492,0.0,0.0,0.0,0.0,0.0,0.0,0.0,0.0,0.0
1646244019.9864566,7485,1646244019,986098868,,0.0,0.0,0.0,0.0,0.0,0.0,0.0,0.0,0.0,0.0,0.0,0.0,0.0,-0.016310978680849075,0.04530441388487816,0.002970772795379162,0.0,0.0,0.0,0.0,0.0,0.0,0.0,0.0,0.0,0.5169230699539185,0.025128206238150597,9.607949256896973,0.0,0.0,0.0,0.0,0.0,0.0,0.0,0.0,0.0
1646244019.9887867,7486,1646244019,988346525,,0.0,0.0,0.0,0.0,0.0,0.0,0.0,0.0,0.0,0.0,0.0,0.0,0.0,-0.012049921788275242,0.038912829011678696,0.022145532071590424,0.0,0.0,0.0,0.0,0.0,0.0,0.0,0.0,0.0,0.7430769801139832,-0.3302564322948456,9.074872016906738,0.0,0.0,0.0,0.0,0.0,0.0,0.0,0.0,0.0
1646244019.9909616,7487,1646244019,990571672,,0.0,0.0,0.0,0.0,0.0,0.0,0.0,0.0,0.0,0.0,0.0,0.0,0.0,-0.0024625419173389673,0.018672803416848183,0.0019055086886510253,0.0,0.0,0.0,0.0,0.0,0.0,0.0,0.0,0.0,0.8346154093742371,-0.2387179583311081,9.19333267211914,0.0,0.0,0.0,0.0,0.0,0.0,0.0,0.0,0.0
1646244019.993326,7488,1646244019,992821198,,0.0,0.0,0.0,0.0,0.0,0.0,0.0,0.0,0.0,0.0,0.0,0.0,0.0,-0.004593071062117815,0.035717036575078964,-0.015138722956180573,0.0,0.0,0.0,0.0,0.0,0.0,0.0,0.0,0.0,0.8023077249526978,-0.43435898423194885,9.105384826660156,0.0,0.0,0.0,0.0,0.0,0.0,0.0,0.0,0.0
1646244019.9954746,7489,1646244019,995055937,,0.0,0.0,0.0,0.0,0.0,0.0,0.0,0.0,0.0,0.0,0.0,0.0,0.0,-0.017376242205500603,0.03678229823708534,-0.0162039864808321,0.0,0.0,0.0,0.0,0.0,0.0,0.0,0.0,0.0,0.3823077082633972,0.19384616613388062,9.783845901489258,0.0,0.0,0.0,0.0,0.0,0.0,0.0,0.0,0.0
1646244019.9976242,7490,1646244019,997253272,,0.0,0.0,0.0,0.0,0.0,0.0,0.0,0.0,0.0,0.0,0.0,0.0,0.0,-0.01098465733230114,0.035717036575078964,-0.01087766420096159,0.0,0.0,0.0,0.0,0.0,0.0,0.0,0.0,0.0,0.2943589687347412,-0.28717949986457825,10.158974647521973,0.0,0.0,0.0,0.0,0.0,0.0,0.0,0.0,0.0
1646244019.9997826,7491,1646244019,999534136,,0.0,0.0,0.0,0.0,0.0,0.0,0.0,0.0,0.0,0.0,0.0,0.0,0.0,0.003929044120013714,0.02612965553998947,-0.01087766420096159,0.0,0.0,0.0,0.0,0.0,0.0,0.0,0.0,0.0,0.9387179613113403,-0.21717949211597443,9.311795234680176,0.0,0.0,0.0,0.0,0.0,0.0,0.0,0.0,0.0
1646244020.0022788,7492,1646244020,1748327,,0.0,0.0,0.0,0.0,0.0,0.0,0.0,0.0,0.0,0.0,0.0,0.0,0.0,-0.017376242205500603,0.04850020632147789,-0.01087766420096159,0.0,0.0,0.0,0.0,0.0,0.0,0.0,0.0,0.0,0.5276923179626465,-0.1561538577079773,9.656410217285156,0.0,0.0,0.0,0.0,0.0,0.0,0.0,0.0,0.0
1646244020.0043855,7493,1646244020,4034280,,0.0,0.0,0.0,0.0,0.0,0.0,0.0,0.0,0.0,0.0,0.0,0.0,0.0,0.006059573031961918,0.035717036575078964,-0.006616605911403894,0.0,0.0,0.0,0.0,0.0,0.0,0.0,0.0,0.0,0.5043590068817139,-0.3446153998374939,9.59538459777832,0.0,0.0,0.0,0.0,0.0,0.0,0.0,0.0,0.0
1646244020.0080087,7494,1646244020,6305283,,0.0,0.0,0.0,0.0,0.0,0.0,0.0,0.0,0.0,0.0,0.0,0.0,0.0,0.006059573031961918,0.05489179491996765,-0.04070506617426872,0.0,0.0,0.0,0.0,0.0,0.0,0.0,0.0,0.0,0.2530769407749176,0.16692309081554413,10.45512866973877,0.0,0.0,0.0,0.0,0.0,0.0,0.0,0.0,0.0
1646244020.0088944,7495,1646244020,8537972,,0.0,0.0,0.0,0.0,0.0,0.0,0.0,0.0,0.0,0.0,0.0,0.0,0.0,0.006059573031961918,0.01973806880414486,-0.008747135289013386,0.0,0.0,0.0,0.0,0.0,0.0,0.0,0.0,0.0,0.14000000059604645,-0.1884615421295166,10.149999618530273,0.0,0.0,0.0,0.0,0.0,0.0,0.0,0.0,0.0
1646244020.0110867,7496,1646244020,10746523,,0.0,0.0,0.0,0.0,0.0,0.0,0.0,0.0,0.0,0.0,0.0,0.0,0.0,0.011385894380509853,0.04210862144827843,-0.0162039864808321,0.0,0.0,0.0,0.0,0.0,0.0,0.0,0.0,0.0,0.08974359184503555,0.0735897421836853,10.399486541748047,0.0,0.0,0.0,0.0,0.0,0.0,0.0,0.0,0.0
1646244020.0133524,7497,1646244020,12993141,,0.0,0.0,0.0,0.0,0.0,0.0,0.0,0.0,0.0,0.0,0.0,0.0,0.0,0.023103805258870125,0.05915284901857376,-0.04496612399816513,0.0,0.0,0.0,0.0,0.0,0.0,0.0,0.0,0.0,0.4738461673259735,-0.1794871836900711,9.615128517150879,0.0,0.0,0.0,0.0,0.0,0.0,0.0,0.0,0.0
1646244020.0154152,7498,1646244020,15183750,,0.0,0.0,0.0,0.0,0.0,0.0,0.0,0.0,0.0,0.0,0.0,0.0,0.0,0.019908009096980095,0.06554443389177322,-0.028987158089876175,0.0,0.0,0.0,0.0,0.0,0.0,0.0,0.0,0.0,0.6551282405853271,-0.3392307758331299,9.419486999511719,0.0,0.0,0.0,0.0,0.0,0.0,0.0,0.0,0.0
1646244020.019008,7499,1646244020,17424323,,0.0,0.0,0.0,0.0,0.0,0.0,0.0,0.0,0.0,0.0,0.0,0.0,0.0,0.0220385380089283,0.06767496466636658,-0.043900858610868454,0.0,0.0,0.0,0.0,0.0,0.0,0.0,0.0,0.0,0.47564104199409485,-0.35538461804389954,9.396153450012207,0.0,0.0,0.0,0.0,0.0,0.0,0.0,0.0,0.0
1646244020.019927,7500,1646244020,19635554,,0.0,0.0,0.0,0.0,0.0,0.0,0.0,0.0,0.0,0.0,0.0,0.0,0.0,0.018842745572328568,0.094306580722332,-0.015138722956180573,0.0,0.0,0.0,0.0,0.0,0.0,0.0,0.0,0.0,0.6425641179084778,-0.6353846788406372,9.279486656188965,0.0,0.0,0.0,0.0,0.0,0.0,0.0,0.0,0.0
1646244020.022237,7501,1646244020,21845627,,0.0,0.0,0.0,0.0,0.0,0.0,0.0,0.0,0.0,0.0,0.0,0.0,0.0,0.014581688679754734,0.0900455191731453,-0.04070506617426872,0.0,0.0,0.0,0.0,0.0,0.0,0.0,0.0,0.0,0.07717949151992798,-0.0825641080737114,9.999231338500977,0.0,0.0,0.0,0.0,0.0,0.0,0.0,0.0,0.0
1646244020.0243964,7502,1646244020,24048401,,0.0,0.0,0.0,0.0,0.0,0.0,0.0,0.0,0.0,0.0,0.0,0.0,0.0,-0.0024625419173389673,0.10176341980695724,-0.021530307829380035,0.0,0.0,0.0,0.0,0.0,0.0,0.0,0.0,0.0,-0.010769231244921684,-0.25128206610679626,10.124872207641602,0.0,0.0,0.0,0.0,0.0,0.0,0.0,0.0,0.0
1646244020.026697,7503,1646244020,26250187,,0.0,0.0,0.0,0.0,0.0,0.0,0.0,0.0,0.0,0.0,0.0,0.0,0.0,0.0103206317871809,0.11135080456733704,-0.054553501307964325,0.0,0.0,0.0,0.0,0.0,0.0,0.0,0.0,0.0,0.12205128371715546,-0.05384615436196327,10.038718223571777,0.0,0.0,0.0,0.0,0.0,0.0,0.0,0.0,0.0
1646244020.028903,7504,1646244020,28474420,,0.0,0.0,0.0,0.0,0.0,0.0,0.0,0.0,0.0,0.0,0.0,0.0,0.0,-0.016310978680849075,0.10815500468015671,-0.04283559322357178,0.0,0.0,0.0,0.0,0.0,0.0,0.0,0.0,0.0,0.17589744925498962,-0.43794873356819153,9.627692222595215,0.0,0.0,0.0,0.0,0.0,0.0,0.0,0.0,0.0
1646244020.0310383,7505,1646244020,30778156,,0.0,0.0,0.0,0.0,0.0,0.0,0.0,0.0,0.0,0.0,0.0,0.0,0.0,-0.02909415028989315,0.10602448135614395,-0.030052425339818,0.0,0.0,0.0,0.0,0.0,0.0,0.0,0.0,0.0,0.47564104199409485,-0.47025641798973083,9.387179374694824,0.0,0.0,0.0,0.0,0.0,0.0,0.0,0.0,0.0
1646244020.0334208,7506,1646244020,33074761,,0.0,0.0,0.0,0.0,0.0,0.0,0.0,0.0,0.0,0.0,0.0,0.0,0.0,-0.0013972773449495435,0.1411781907081604,-0.04816191643476486,0.0,0.0,0.0,0.0,0.0,0.0,0.0,0.0,0.0,0.7305128574371338,-0.44333335757255554,9.028204917907715,0.0,0.0,0.0,0.0,0.0,0.0,0.0,0.0,0.0
1646244020.0357337,7507,1646244020,35351862,,0.0,0.0,0.0,0.0,0.0,0.0,0.0,0.0,0.0,0.0,0.0,0.0,0.0,-0.017376242205500603,0.12626449763774872,-0.04603138566017151,0.0,0.0,0.0,0.0,0.0,0.0,0.0,0.0,0.0,0.06641025841236115,-0.25487178564071655,9.704872131347656,0.0,0.0,0.0,0.0,0.0,0.0,0.0,0.0,0.0
1646244020.0380774,7508,1646244020,37700695,,0.0,0.0,0.0,0.0,0.0,0.0,0.0,0.0,0.0,0.0,0.0,0.0,0.0,-0.026963621377944946,0.1369171440601349,-0.03644401207566261,0.0,0.0,0.0,0.0,0.0,0.0,0.0,0.0,0.0,0.4882051348686218,-0.10230769217014313,9.661794662475586,0.0,0.0,0.0,0.0,0.0,0.0,0.0,0.0,0.0
1646244020.040379,7509,1646244020,39975769,,0.0,0.0,0.0,0.0,0.0,0.0,0.0,0.0,0.0,0.0,0.0,0.0,0.0,-0.02589835785329342,0.12200344353914261,-0.03857453912496567,0.0,0.0,0.0,0.0,0.0,0.0,0.0,0.0,0.0,0.45769232511520386,-0.2117948830127716,9.214871406555176,0.0,0.0,0.0,0.0,0.0,0.0,0.0,0.0,0.0
1646244020.0426102,7510,1646244020,42206460,,0.0,0.0,0.0,0.0,0.0,0.0,0.0,0.0,0.0,0.0,0.0,0.0,0.0,-0.015245715156197548,0.13904768228530884,-0.035378746688365936,0.0,0.0,0.0,0.0,0.0,0.0,0.0,0.0,0.0,0.7933333516120911,-0.0412820540368557,9.035384178161621,0.0,0.0,0.0,0.0,0.0,0.0,0.0,0.0,0.0
1646244020.0447714,7511,1646244020,44429494,,0.0,0.0,0.0,0.0,0.0,0.0,0.0,0.0,0.0,0.0,0.0,0.0,0.0,-0.01098465733230114,0.1358518898487091,-0.030052425339818,0.0,0.0,0.0,0.0,0.0,0.0,0.0,0.0,0.0,0.5151281952857971,-0.4092307686805725,9.236410140991211,0.0,0.0,0.0,0.0,0.0,0.0,0.0,0.0,0.0
1646244020.0470114,7512,1646244020,46666445,,0.0,0.0,0.0,0.0,0.0,0.0,0.0,0.0,0.0,0.0,0.0,0.0,0.0,0.0028637798968702555,0.11987292021512985,-0.03324821963906288,0.0,0.0,0.0,0.0,0.0,0.0,0.0,0.0,0.0,0.5294871926307678,-0.3823077082633972,9.250768661499023,0.0,0.0,0.0,0.0,0.0,0.0,0.0,0.0,0.0
1646244020.0501518,7513,1646244020,48888712,,0.0,0.0,0.0,0.0,0.0,0.0,0.0,0.0,0.0,0.0,0.0,0.0,0.0,0.015646953135728836,0.09324131160974503,-0.02366083674132824,0.0,0.0,0.0,0.0,0.0,0.0,0.0,0.0,0.0,0.09512820839881897,0.10769230872392654,10.334872245788574,0.0,0.0,0.0,0.0,0.0,0.0,0.0,0.0,0.0
1646244020.0514212,7514,1646244020,51099212,,0.0,0.0,0.0,0.0,0.0,0.0,0.0,0.0,0.0,0.0,0.0,0.0,0.0,0.027364861220121384,0.11241606622934341,0.0008402442326769233,0.0,0.0,0.0,0.0,0.0,0.0,0.0,0.0,0.0,-0.05743589997291565,-0.01794871874153614,10.385128021240234,0.0,0.0,0.0,0.0,0.0,0.0,0.0,0.0,0.0
1646244020.0537205,7515,1646244020,53310848,,0.0,0.0,0.0,0.0,0.0,0.0,0.0,0.0,0.0,0.0,0.0,0.0,0.0,0.04334382712841034,0.08578446507453918,-0.009812399744987488,0.0,0.0,0.0,0.0,0.0,0.0,0.0,0.0,0.0,0.07717949151992798,0.09692308306694031,10.205641746520996,0.0,0.0,0.0,0.0,0.0,0.0,0.0,0.0,0.0
1646244020.0559733,7516,1646244020,55582633,,0.0,0.0,0.0,0.0,0.0,0.0,0.0,0.0,0.0,0.0,0.0,0.0,0.0,0.04760488495230675,0.07939288020133972,0.01255815289914608,0.0,0.0,0.0,0.0,0.0,0.0,0.0,0.0,0.0,0.2979487180709839,-0.3392307758331299,9.613333702087402,0.0,0.0,0.0,0.0,0.0,0.0,0.0,0.0,0.0
1646244020.0580947,7517,1646244020,57792225,,0.0,0.0,0.0,0.0,0.0,0.0,0.0,0.0,0.0,0.0,0.0,0.0,0.0,0.0497354120016098,0.05489179491996765,0.00723183061927557,0.0,0.0,0.0,0.0,0.0,0.0,0.0,0.0,0.0,0.23333333432674408,-0.01794871874153614,9.661794662475586,0.0,0.0,0.0,0.0,0.0,0.0,0.0,0.0,0.0
1646244020.0603862,7518,1646244020,60012319,,0.0,0.0,0.0,0.0,0.0,0.0,0.0,0.0,0.0,0.0,0.0,0.0,0.0,0.04014803469181061,0.06554443389177322,-0.0162039864808321,0.0,0.0,0.0,0.0,0.0,0.0,0.0,0.0,0.0,0.14000000059604645,-0.33384618163108826,9.826923370361328,0.0,0.0,0.0,0.0,0.0,0.0,0.0,0.0,0.0
1646244020.0626168,7519,1646244020,62243149,,0.0,0.0,0.0,0.0,0.0,0.0,0.0,0.0,0.0,0.0,0.0,0.0,0.0,0.030560653656721115,0.04104335606098175,0.002970772795379162,0.0,0.0,0.0,0.0,0.0,0.0,0.0,0.0,0.0,-0.3589743673801422,0.2064102590084076,10.482051849365234,0.0,0.0,0.0,0.0,0.0,0.0,0.0,0.0,0.0
1646244020.0654423,7520,1646244020,64491610,,0.0,0.0,0.0,0.0,0.0,0.0,0.0,0.0,0.0,0.0,0.0,0.0,0.0,0.0220385380089283,0.058087583631277084,0.002970772795379162,0.0,0.0,0.0,0.0,0.0,0.0,0.0,0.0,0.0,-0.03948718309402466,-0.11846154183149338,10.282820701599121,0.0,0.0,0.0,0.0,0.0,0.0,0.0,0.0,0.0
1646244020.067169,7521,1646244020,66734646,,0.0,0.0,0.0,0.0,0.0,0.0,0.0,0.0,0.0,0.0,0.0,0.0,0.0,0.014581688679754734,0.04743494465947151,0.013623417355120182,0.0,0.0,0.0,0.0,0.0,0.0,0.0,0.0,0.0,-0.12743589282035828,-0.22256410121917725,10.04230785369873,0.0,0.0,0.0,0.0,0.0,0.0,0.0,0.0,0.0
1646244020.069356,7522,1646244020,68964083,,0.0,0.0,0.0,0.0,0.0,0.0,0.0,0.0,0.0,0.0,0.0,0.0,0.0,0.0007332512177526951,0.023999126628041267,0.0019055086886510253,0.0,0.0,0.0,0.0,0.0,0.0,0.0,0.0,0.0,-0.2153846174478531,0.10410256683826447,10.313332557678223,0.0,0.0,0.0,0.0,0.0,0.0,0.0,0.0,0.0
1646244020.0716012,7523,1646244020,71198223,,0.0,0.0,0.0,0.0,0.0,0.0,0.0,0.0,0.0,0.0,0.0,0.0,0.0,-0.015245715156197548,0.01441174652427435,0.011492888443171978,0.0,0.0,0.0,0.0,0.0,0.0,0.0,0.0,0.0,-0.5492307543754578,-0.21717949211597443,10.431795120239258,0.0,0.0,0.0,0.0,0.0,0.0,0.0,0.0,0.0
1646244020.073841,7524,1646244020,73427391,,0.0,0.0,0.0,0.0,0.0,0.0,0.0,0.0,0.0,0.0,0.0,0.0,0.0,-0.015245715156197548,0.015477010980248451,0.021080268546938896,0.0,0.0,0.0,0.0,0.0,0.0,0.0,0.0,0.0,-0.8615384697914124,0.3948718011379242,11.284358978271484,0.0,0.0,0.0,0.0,0.0,0.0,0.0,0.0,0.0
1646244020.0760531,7525,1646244020,75638051,,0.0,0.0,0.0,0.0,0.0,0.0,0.0,0.0,0.0,0.0,0.0,0.0,0.0,0.015646953135728836,0.008020159788429737,-0.004486078396439552,0.0,0.0,0.0,0.0,0.0,0.0,0.0,0.0,0.0,-0.9243589639663696,-0.05025641247630119,10.756667137145996,0.0,0.0,0.0,0.0,0.0,0.0,0.0,0.0,0.0
1646244020.0783203,7526,1646244020,77866966,,0.0,0.0,0.0,0.0,0.0,0.0,0.0,0.0,0.0,0.0,0.0,0.0,0.0,-0.0024625419173389673,0.011215953156352043,0.03492870554327965,0.0,0.0,0.0,0.0,0.0,0.0,0.0,0.0,0.0,-1.046410322189331,0.12205128371715546,10.860769271850586,0.0,0.0,0.0,0.0,0.0,0.0,0.0,0.0,0.0
1646244020.0805502,7527,1646244020,80096714,,0.0,0.0,0.0,0.0,0.0,0.0,0.0,0.0,0.0,0.0,0.0,0.0,0.0,-0.0024625419173389673,-0.009024071507155895,0.0019055086886510253,0.0,0.0,0.0,0.0,0.0,0.0,0.0,0.0,0.0,-0.4774359166622162,0.20820513367652893,10.421026229858398,0.0,0.0,0.0,0.0,0.0,0.0,0.0,0.0,0.0
1646244020.0830688,7528,1646244020,82367811,,0.0,0.0,0.0,0.0,0.0,0.0,0.0,0.0,0.0,0.0,0.0,0.0,0.0,0.006059573031961918,-0.0036977482959628105,0.018949739634990692,0.0,0.0,0.0,0.0,0.0,0.0,0.0,0.0,0.0,-0.15256410837173462,-0.1974359005689621,9.887948036193848,0.0,0.0,0.0,0.0,0.0,0.0,0.0,0.0,0.0
1646244020.0849824,7529,1646244020,84629738,,0.0,0.0,0.0,0.0,0.0,0.0,0.0,0.0,0.0,0.0,0.0,0.0,0.0,0.019908009096980095,-0.015415656380355358,-0.015138722956180573,0.0,0.0,0.0,0.0,0.0,0.0,0.0,0.0,0.0,-0.4415384829044342,0.17589744925498962,10.094359397888184,0.0,0.0,0.0,0.0,0.0,0.0,0.0,0.0,0.0
1646244020.0886695,7530,1646244020,86912422,,0.0,0.0,0.0,0.0,0.0,0.0,0.0,0.0,0.0,0.0,0.0,0.0,0.0,0.01777748018503189,-0.018611449748277664,0.008297095075249672,0.0,0.0,0.0,0.0,0.0,0.0,0.0,0.0,0.0,-0.21358974277973175,-0.21717949211597443,9.948974609375,0.0,0.0,0.0,0.0,0.0,0.0,0.0,0.0,0.0
1646244020.0900433,7531,1646244020,89564010,,0.0,0.0,0.0,0.0,0.0,0.0,0.0,0.0,0.0,0.0,0.0,0.0,0.0,0.001798515673726797,-0.0495041161775589,-0.0023555487859994173,0.0,0.0,0.0,0.0,0.0,0.0,0.0,0.0,0.0,-0.6641026139259338,0.5976923108100891,10.10333251953125,0.0,0.0,0.0,0.0,0.0,0.0,0.0,0.0,0.0
1646244020.0922036,7532,1646244020,91810409,,0.0,0.0,0.0,0.0,0.0,0.0,0.0,0.0,0.0,0.0,0.0,0.0,0.0,0.024169068783521652,-0.029264096170663834,0.03066764585673809,0.0,0.0,0.0,0.0,0.0,0.0,0.0,0.0,0.0,-0.7197436094284058,0.2889743745326996,10.50538444519043,0.0,0.0,0.0,0.0,0.0,0.0,0.0,0.0,0.0
1646244020.094555,7533,1646244020,94034970,,0.0,0.0,0.0,0.0,0.0,0.0,0.0,0.0,0.0,0.0,0.0,0.0,0.0,0.026299597695469856,-0.04098200052976608,0.018949739634990692,0.0,0.0,0.0,0.0,0.0,0.0,0.0,0.0,0.0,-0.895641028881073,0.17769230902194977,10.45692253112793,0.0,0.0,0.0,0.0,0.0,0.0,0.0,0.0,0.0
1646244020.0967202,7534,1646244020,96262546,,0.0,0.0,0.0,0.0,0.0,0.0,0.0,0.0,0.0,0.0,0.0,0.0,0.0,0.004994308575987816,-0.050569381564855576,0.021080268546938896,0.0,0.0,0.0,0.0,0.0,0.0,0.0,0.0,0.0,-0.45230770111083984,0.3679487407207489,10.205641746520996,0.0,0.0,0.0,0.0,0.0,0.0,0.0,0.0,0.0
1646244020.0987706,7535,1646244020,98487499,,0.0,0.0,0.0,0.0,0.0,0.0,0.0,0.0,0.0,0.0,0.0,0.0,0.0,0.016712216660380363,-0.03778620809316635,0.010427623987197876,0.0,0.0,0.0,0.0,0.0,0.0,0.0,0.0,0.0,-0.6856410503387451,0.20461538434028625,10.196666717529297,0.0,0.0,0.0,0.0,0.0,0.0,0.0,0.0,0.0
1646244020.101298,7536,1646244020,100745373,,0.0,0.0,0.0,0.0,0.0,0.0,0.0,0.0,0.0,0.0,0.0,0.0,0.0,0.00925536546856165,-0.06015676259994507,-0.0023555487859994173,0.0,0.0,0.0,0.0,0.0,0.0,0.0,0.0,0.0,-0.2943589687347412,0.2979487180709839,9.318974494934082,0.0,0.0,0.0,0.0,0.0,0.0,0.0,0.0,0.0
1646244020.1034143,7537,1646244020,102989629,,0.0,0.0,0.0,0.0,0.0,0.0,0.0,0.0,0.0,0.0,0.0,0.0,0.0,-0.004593071062117815,-0.05269990861415863,0.017884474247694016,0.0,0.0,0.0,0.0,0.0,0.0,0.0,0.0,0.0,0.030512820929288864,-0.23512820899486542,9.281281471252441,0.0,0.0,0.0,0.0,0.0,0.0,0.0,0.0,0.0
1646244020.1056464,7538,1646244020,105199945,,0.0,0.0,0.0,0.0,0.0,0.0,0.0,0.0,0.0,0.0,0.0,0.0,0.0,-0.013115186244249344,-0.06548308581113815,0.01575394533574581,0.0,0.0,0.0,0.0,0.0,0.0,0.0,0.0,0.0,-0.7341026067733765,0.3571794927120209,10.094359397888184,0.0,0.0,0.0,0.0,0.0,0.0,0.0,0.0,0.0
1646244020.1079803,7539,1646244020,107525064,,0.0,0.0,0.0,0.0,0.0,0.0,0.0,0.0,0.0,0.0,0.0,0.0,0.0,-0.013115186244249344,-0.08572310209274292,0.014688681811094284,0.0,0.0,0.0,0.0,0.0,0.0,0.0,0.0,0.0,-0.3266666829586029,0.25487178564071655,9.518204689025879,0.0,0.0,0.0,0.0,0.0,0.0,0.0,0.0,0.0
1646244020.1102004,7540,1646244020,109755352,,0.0,0.0,0.0,0.0,0.0,0.0,0.0,0.0,0.0,0.0,0.0,0.0,0.0,-0.0024625419173389673,-0.08039677888154984,0.014688681811094284,0.0,0.0,0.0,0.0,0.0,0.0,0.0,0.0,0.0,-0.24051281809806824,0.02153846248984337,9.225641250610352,0.0,0.0,0.0,0.0,0.0,0.0,0.0,0.0,0.0
1646244020.112372,7541,1646244020,112015090,,0.0,0.0,0.0,0.0,0.0,0.0,0.0,0.0,0.0,0.0,0.0,0.0,0.0,-0.014180450700223446,-0.06974414736032486,-0.00022502047067973763,0.0,0.0,0.0,0.0,0.0,0.0,0.0,0.0,0.0,-0.12025640904903412,0.2620512843132019,9.489486694335938,0.0,0.0,0.0,0.0,0.0,0.0,0.0,0.0,0.0
1646244020.1145415,7542,1646244020,114256267,,0.0,0.0,0.0,0.0,0.0,0.0,0.0,0.0,0.0,0.0,0.0,0.0,0.0,-0.009919392876327038,-0.10383259505033493,0.010427623987197876,0.0,0.0,0.0,0.0,0.0,0.0,0.0,0.0,0.0,-0.3446153998374939,0.1058974415063858,9.493077278137207,0.0,0.0,0.0,0.0,0.0,0.0,0.0,0.0,0.0
1646244020.116964,7543,1646244020,116475869,,0.0,0.0,0.0,0.0,0.0,0.0,0.0,0.0,0.0,0.0,0.0,0.0,0.0,-0.028028886765241623,-0.09957154095172882,-0.0012902843300253153,0.0,0.0,0.0,0.0,0.0,0.0,0.0,0.0,0.0,-0.5600000023841858,0.6156410574913025,10.245128631591797,0.0,0.0,0.0,0.0,0.0,0.0,0.0,0.0,0.0
1646244020.1190383,7544,1646244020,118671030,,0.0,0.0,0.0,0.0,0.0,0.0,0.0,0.0,0.0,0.0,0.0,0.0,0.0,-0.0035278063733130693,-0.1006368026137352,0.018949739634990692,0.0,0.0,0.0,0.0,0.0,0.0,0.0,0.0,0.0,-0.6174359321594238,0.43974360823631287,10.071025848388672,0.0,0.0,0.0,0.0,0.0,0.0,0.0,0.0,0.0
1646244020.1212041,7545,1646244020,120882902,,0.0,0.0,0.0,0.0,0.0,0.0,0.0,0.0,0.0,0.0,0.0,0.0,0.0,0.02843012474477291,-0.11341997981071472,0.011492888443171978,0.0,0.0,0.0,0.0,0.0,0.0,0.0,0.0,0.0,-0.6030769348144531,0.3589743673801422,10.397692680358887,0.0,0.0,0.0,0.0,0.0,0.0,0.0,0.0,0.0
1646244020.123758,7546,1646244020,123157738,,0.0,0.0,0.0,0.0,0.0,0.0,0.0,0.0,0.0,0.0,0.0,0.0,0.0,-0.0067235990427434444,-0.11128944903612137,0.002970772795379162,0.0,0.0,0.0,0.0,0.0,0.0,0.0,0.0,0.0,-0.38410258293151855,0.5241025686264038,9.60076904296875,0.0,0.0,0.0,0.0,0.0,0.0,0.0,0.0,0.0
1646244020.1258326,7547,1646244020,125361719,,0.0,0.0,0.0,0.0,0.0,0.0,0.0,0.0,0.0,0.0,0.0,0.0,0.0,0.015646953135728836,-0.11768103390932083,0.014688681811094284,0.0,0.0,0.0,0.0,0.0,0.0,0.0,0.0,0.0,0.028717949986457825,0.32487180829048157,9.399744033813477,0.0,0.0,0.0,0.0,0.0,0.0,0.0,0.0,0.0
1646244020.1280553,7548,1646244020,127610708,,0.0,0.0,0.0,0.0,0.0,0.0,0.0,0.0,0.0,0.0,0.0,0.0,0.0,0.04760488495230675,-0.11128944903612137,0.0008402442326769233,0.0,0.0,0.0,0.0,0.0,0.0,0.0,0.0,0.0,-0.8256410360336304,0.6676923632621765,10.377948760986328,0.0,0.0,0.0,0.0,0.0,0.0,0.0,0.0,0.0
1646244020.131334,7549,1646244020,129867392,,0.0,0.0,0.0,0.0,0.0,0.0,0.0,0.0,0.0,0.0,0.0,0.0,0.0,0.01777748018503189,-0.11768103390932083,0.008297095075249672,0.0,0.0,0.0,0.0,0.0,0.0,0.0,0.0,0.0,-0.1382051259279251,0.05205128341913223,9.171794891357422,0.0,0.0,0.0,0.0,0.0,0.0,0.0,0.0,0.0
1646244020.1325781,7550,1646244020,132143146,,0.0,0.0,0.0,0.0,0.0,0.0,0.0,0.0,0.0,0.0,0.0,0.0,0.0,0.0358869731426239,-0.11981156468391418,-0.0076818703673779964,0.0,0.0,0.0,0.0,0.0,0.0,0.0,0.0,0.0,-0.3392307758331299,0.4738461673259735,9.970513343811035,0.0,0.0,0.0,0.0,0.0,0.0,0.0,0.0,0.0
1646244020.1354096,7551,1646244020,134379820,,0.0,0.0,0.0,0.0,0.0,0.0,0.0,0.0,0.0,0.0,0.0,0.0,0.0,0.008190101943910122,-0.11341997981071472,0.02747185342013836,0.0,0.0,0.0,0.0,0.0,0.0,0.0,0.0,0.0,-0.06461538374423981,0.026923077180981636,9.231025695800781,0.0,0.0,0.0,0.0,0.0,0.0,0.0,0.0,0.0
1646244020.1371114,7552,1646244020,136653924,,0.0,0.0,0.0,0.0,0.0,0.0,0.0,0.0,0.0,0.0,0.0,0.0,0.0,0.01777748018503189,-0.11661577224731445,0.03386344015598297,0.0,0.0,0.0,0.0,0.0,0.0,0.0,0.0,0.0,-0.6407692432403564,0.42538464069366455,10.164359092712402,0.0,0.0,0.0,0.0,0.0,0.0,0.0,0.0,0.0
1646244020.1392744,7553,1646244020,138900665,,0.0,0.0,0.0,0.0,0.0,0.0,0.0,0.0,0.0,0.0,0.0,0.0,0.0,0.016712216660380363,-0.10170207172632217,0.006166566163301468,0.0,0.0,0.0,0.0,0.0,0.0,0.0,0.0,0.0,0.0825641080737114,0.032307691872119904,9.36025619506836,0.0,0.0,0.0,0.0,0.0,0.0,0.0,0.0,0.0
1646244020.1416,7554,1646244020,141129987,,0.0,0.0,0.0,0.0,0.0,0.0,0.0,0.0,0.0,0.0,0.0,0.0,0.0,-0.0003320134710520506,-0.09957154095172882,0.02747185342013836,0.0,0.0,0.0,0.0,0.0,0.0,0.0,0.0,0.0,-0.10051282495260239,-0.05923077091574669,9.383589744567871,0.0,0.0,0.0,0.0,0.0,0.0,0.0,0.0,0.0
1646244020.1437628,7555,1646244020,143349999,,0.0,0.0,0.0,0.0,0.0,0.0,0.0,0.0,0.0,0.0,0.0,0.0,0.0,0.003929044120013714,-0.0867883637547493,0.011492888443171978,0.0,0.0,0.0,0.0,0.0,0.0,0.0,0.0,0.0,-0.36615386605262756,0.42000001668930054,10.23794937133789,0.0,0.0,0.0,0.0,0.0,0.0,0.0,0.0,0.0
1646244020.1461756,7556,1646244020,145694347,,0.0,0.0,0.0,0.0,0.0,0.0,0.0,0.0,0.0,0.0,0.0,0.0,0.0,-0.0077888634987175465,-0.11128944903612137,0.025341326370835304,0.0,0.0,0.0,0.0,0.0,0.0,0.0,0.0,0.0,-0.4092307686805725,0.2064102590084076,9.791025161743164,0.0,0.0,0.0,0.0,0.0,0.0,0.0,0.0,0.0
1646244020.1483333,7557,1646244020,147940613,,0.0,0.0,0.0,0.0,0.0,0.0,0.0,0.0,0.0,0.0,0.0,0.0,0.0,0.008190101943910122,-0.11235471069812775,0.025341326370835304,0.0,0.0,0.0,0.0,0.0,0.0,0.0,0.0,0.0,-0.18666666746139526,0.3679487407207489,10.001025199890137,0.0,0.0,0.0,0.0,0.0,0.0,0.0,0.0,0.0
1646244020.150578,7558,1646244020,150173849,,0.0,0.0,0.0,0.0,0.0,0.0,0.0,0.0,0.0,0.0,0.0,0.0,0.0,-0.024833092465996742,-0.0676136165857315,0.017884474247694016,0.0,0.0,0.0,0.0,0.0,0.0,0.0,0.0,0.0,0.06102564185857773,0.08794872462749481,9.268717765808105,0.0,0.0,0.0,0.0,0.0,0.0,0.0,0.0,0.0
1646244020.1526504,7559,1646244020,152376637,,0.0,0.0,0.0,0.0,0.0,0.0,0.0,0.0,0.0,0.0,0.0,0.0,0.0,-0.0035278063733130693,-0.08146204799413681,0.035993970930576324,0.0,0.0,0.0,0.0,0.0,0.0,0.0,0.0,0.0,0.4038461744785309,0.2674359083175659,8.75,0.0,0.0,0.0,0.0,0.0,0.0,0.0,0.0,0.0
1646244020.1559792,7560,1646244020,154588834,,0.0,0.0,0.0,0.0,0.0,0.0,0.0,0.0,0.0,0.0,0.0,0.0,0.0,-0.030159417539834976,-0.05696096643805504,0.01575394533574581,0.0,0.0,0.0,0.0,0.0,0.0,0.0,0.0,0.0,0.2800000011920929,0.14897435903549194,8.95102596282959,0.0,0.0,0.0,0.0,0.0,0.0,0.0,0.0,0.0
1646244020.157081,7561,1646244020,156791730,,0.0,0.0,0.0,0.0,0.0,0.0,0.0,0.0,0.0,0.0,0.0,0.0,0.0,-0.023767828941345215,-0.061222027987241745,0.04132029414176941,0.0,0.0,0.0,0.0,0.0,0.0,0.0,0.0,0.0,0.4541025757789612,-0.24948717653751373,8.70692253112793,0.0,0.0,0.0,0.0,0.0,0.0,0.0,0.0,0.0
1646244020.159524,7562,1646244020,158992739,,0.0,0.0,0.0,0.0,0.0,0.0,0.0,0.0,0.0,0.0,0.0,0.0,0.0,-0.03868153318762779,-0.018611449748277664,0.035993970930576324,0.0,0.0,0.0,0.0,0.0,0.0,0.0,0.0,0.0,0.2153846174478531,0.15794873237609863,9.385384559631348,0.0,0.0,0.0,0.0,0.0,0.0,0.0,0.0,0.0
1646244020.1615858,7563,1646244020,161197094,,0.0,0.0,0.0,0.0,0.0,0.0,0.0,0.0,0.0,0.0,0.0,0.0,0.0,-0.024833092465996742,-0.04630832374095917,0.028537116944789886,0.0,0.0,0.0,0.0,0.0,0.0,0.0,0.0,0.0,-0.2028205245733261,0.05923077091574669,9.575640678405762,0.0,0.0,0.0,0.0,0.0,0.0,0.0,0.0,0.0
1646244020.1639159,7564,1646244020,163414847,,0.0,0.0,0.0,0.0,0.0,0.0,0.0,0.0,0.0,0.0,0.0,0.0,0.0,-0.03868153318762779,-0.0026324838399887085,0.028537116944789886,0.0,0.0,0.0,0.0,0.0,0.0,0.0,0.0,0.0,0.5115384459495544,0.11128205060958862,8.879230499267578,0.0,0.0,0.0,0.0,0.0,0.0,0.0,0.0,0.0
1646244020.1660995,7565,1646244020,165661982,,0.0,0.0,0.0,0.0,0.0,0.0,0.0,0.0,0.0,0.0,0.0,0.0,0.0,-0.02909415028989315,-0.035655677318573,0.004036037251353264,0.0,0.0,0.0,0.0,0.0,0.0,0.0,0.0,0.0,0.05025641247630119,0.1651282161474228,9.286666870117188,0.0,0.0,0.0,0.0,0.0,0.0,0.0,0.0,0.0
1646244020.1682367,7566,1646244020,167883317,,0.0,0.0,0.0,0.0,0.0,0.0,0.0,0.0,0.0,0.0,0.0,0.0,0.0,-0.0429425872862339,-0.01648092083632946,0.04558135196566582,0.0,0.0,0.0,0.0,0.0,0.0,0.0,0.0,0.0,0.5761538743972778,-0.0825641080737114,9.00487232208252,0.0,0.0,0.0,0.0,0.0,0.0,0.0,0.0,0.0
1646244020.170465,7567,1646244020,170115102,,0.0,0.0,0.0,0.0,0.0,0.0,0.0,0.0,0.0,0.0,0.0,0.0,0.0,-0.015245715156197548,0.0016285729361698031,-0.009812399744987488,0.0,0.0,0.0,0.0,0.0,0.0,0.0,0.0,0.0,0.19384616613388062,0.36076924204826355,9.469743728637695,0.0,0.0,0.0,0.0,0.0,0.0,0.0,0.0,0.0
1646244020.1736221,7568,1646244020,172359457,,0.0,0.0,0.0,0.0,0.0,0.0,0.0,0.0,0.0,0.0,0.0,0.0,0.0,-0.004593071062117815,-0.015415656380355358,0.037059236317873,0.0,0.0,0.0,0.0,0.0,0.0,0.0,0.0,0.0,0.1651282161474228,0.07179487496614456,9.706666946411133,0.0,0.0,0.0,0.0,0.0,0.0,0.0,0.0,0.0
1646244020.1748989,7569,1646244020,174565585,,0.0,0.0,0.0,0.0,0.0,0.0,0.0,0.0,0.0,0.0,0.0,0.0,0.0,-0.012049921788275242,-0.0015672193840146065,0.00723183061927557,0.0,0.0,0.0,0.0,0.0,0.0,0.0,0.0,0.0,0.5941025614738464,0.07000000029802322,9.173589706420898,0.0,0.0,0.0,0.0,0.0,0.0,0.0,0.0,0.0
1646244020.1770868,7570,1646244020,176799748,,0.0,0.0,0.0,0.0,0.0,0.0,0.0,0.0,0.0,0.0,0.0,0.0,0.0,0.001798515673726797,0.01441174652427435,0.03386344015598297,0.0,0.0,0.0,0.0,0.0,0.0,0.0,0.0,0.0,0.5887179374694824,-0.22435897588729858,9.186153411865234,0.0,0.0,0.0,0.0,0.0,0.0,0.0,0.0,0.0
1646244020.1794498,7571,1646244020,179058265,,0.0,0.0,0.0,0.0,0.0,0.0,0.0,0.0,0.0,0.0,0.0,0.0,0.0,-0.0003320134710520506,-0.012219863012433052,0.002970772795379162,0.0,0.0,0.0,0.0,0.0,0.0,0.0,0.0,0.0,0.7664102911949158,-0.014358974993228912,9.083846092224121,0.0,0.0,0.0,0.0,0.0,0.0,0.0,0.0,0.0
1646244020.1817982,7572,1646244020,181259174,,0.0,0.0,0.0,0.0,0.0,0.0,0.0,0.0,0.0,0.0,0.0,0.0,0.0,-0.013115186244249344,0.01654227450489998,0.002970772795379162,0.0,0.0,0.0,0.0,0.0,0.0,0.0,0.0,0.0,0.8633333444595337,-0.34641027450561523,8.943845748901367,0.0,0.0,0.0,0.0,0.0,0.0,0.0,0.0,0.0
1646244020.1839952,7573,1646244020,183454480,,0.0,0.0,0.0,0.0,0.0,0.0,0.0,0.0,0.0,0.0,0.0,0.0,0.0,-0.012049921788275242,0.02612965553998947,0.01575394533574581,0.0,0.0,0.0,0.0,0.0,0.0,0.0,0.0,0.0,0.3805128335952759,0.10230769217014313,9.631281852722168,0.0,0.0,0.0,0.0,0.0,0.0,0.0,0.0,0.0
1646244020.1862183,7574,1646244020,185735625,,0.0,0.0,0.0,0.0,0.0,0.0,0.0,0.0,0.0,0.0,0.0,0.0,0.0,-0.031224681064486504,0.02612965553998947,-0.0076818703673779964,0.0,0.0,0.0,0.0,0.0,0.0,0.0,0.0,0.0,0.2925640940666199,-0.010769231244921684,9.814358711242676,0.0,0.0,0.0,0.0,0.0,0.0,0.0,0.0,0.0
1646244020.1884508,7575,1646244020,187942649,,0.0,0.0,0.0,0.0,0.0,0.0,0.0,0.0,0.0,0.0,0.0,0.0,0.0,-0.02163730002939701,0.011215953156352043,0.006166566163301468,0.0,0.0,0.0,0.0,0.0,0.0,0.0,0.0,0.0,0.14538460969924927,-0.14179487526416779,9.932821273803711,0.0,0.0,0.0,0.0,0.0,0.0,0.0,0.0,0.0
1646244020.1906104,7576,1646244020,190149186,,0.0,0.0,0.0,0.0,0.0,0.0,0.0,0.0,0.0,0.0,0.0,0.0,0.0,-0.024833092465996742,0.03784756362438202,0.002970772795379162,0.0,0.0,0.0,0.0,0.0,0.0,0.0,0.0,0.0,0.12205128371715546,0.30153846740722656,10.035127639770508,0.0,0.0,0.0,0.0,0.0,0.0,0.0,0.0,0.0
1646244020.1928928,7577,1646244020,192424339,,0.0,0.0,0.0,0.0,0.0,0.0,0.0,0.0,0.0,0.0,0.0,0.0,0.0,-0.012049921788275242,0.017607539892196655,-0.024726100265979767,0.0,0.0,0.0,0.0,0.0,0.0,0.0,0.0,0.0,0.3410256505012512,-0.3212820589542389,9.814358711242676,0.0,0.0,0.0,0.0,0.0,0.0,0.0,0.0,0.0
1646244020.1951697,7578,1646244020,194735517,,0.0,0.0,0.0,0.0,0.0,0.0,0.0,0.0,0.0,0.0,0.0,0.0,0.0,-0.024833092465996742,0.03465176746249199,0.006166566163301468,0.0,0.0,0.0,0.0,0.0,0.0,0.0,0.0,0.0,0.2476923167705536,-0.27282050251960754,9.992051124572754,0.0,0.0,0.0,0.0,0.0,0.0,0.0,0.0,0.0
1646244020.1974154,7579,1646244020,196994684,,0.0,0.0,0.0,0.0,0.0,0.0,0.0,0.0,0.0,0.0,0.0,0.0,0.0,-0.026963621377944946,0.020803332328796387,-0.008747135289013386,0.0,0.0,0.0,0.0,0.0,0.0,0.0,0.0,0.0,0.6300000548362732,-0.20820513367652893,9.721025466918945,0.0,0.0,0.0,0.0,0.0,0.0,0.0,0.0,0.0
1646244020.1998472,7580,1646244020,199260524,,0.0,0.0,0.0,0.0,0.0,0.0,0.0,0.0,0.0,0.0,0.0,0.0,0.0,-0.004593071062117815,0.032521240413188934,-0.00022502047067973763,0.0,0.0,0.0,0.0,0.0,0.0,0.0,0.0,0.0,0.7161538600921631,-0.4128205180168152,9.378205299377441,0.0,0.0,0.0,0.0,0.0,0.0,0.0,0.0,0.0
1646244020.203079,7581,1646244020,201500597,,0.0,0.0,0.0,0.0,0.0,0.0,0.0,0.0,0.0,0.0,0.0,0.0,0.0,-0.02909415028989315,0.05489179491996765,-0.005551342852413654,0.0,0.0,0.0,0.0,0.0,0.0,0.0,0.0,0.0,0.6587179899215698,-0.06461538374423981,9.661794662475586,0.0,0.0,0.0,0.0,0.0,0.0,0.0,0.0,0.0
1646244020.2040427,7582,1646244020,203716567,,0.0,0.0,0.0,0.0,0.0,0.0,0.0,0.0,0.0,0.0,0.0,0.0,0.0,0.00925536546856165,0.04104335606098175,-0.03324821963906288,0.0,0.0,0.0,0.0,0.0,0.0,0.0,0.0,0.0,0.6210256814956665,-0.3823077082633972,9.476922988891602,0.0,0.0,0.0,0.0,0.0,0.0,0.0,0.0,0.0
1646244020.2062776,7583,1646244020,205920322,,0.0,0.0,0.0,0.0,0.0,0.0,0.0,0.0,0.0,0.0,0.0,0.0,0.0,-0.016310978680849075,0.04743494465947151,-0.018334513530135155,0.0,0.0,0.0,0.0,0.0,0.0,0.0,0.0,0.0,0.25128206610679626,0.15435898303985596,10.228974342346191,0.0,0.0,0.0,0.0,0.0,0.0,0.0,0.0,0.0
1646244020.208584,7584,1646244020,208218597,,0.0,0.0,0.0,0.0,0.0,0.0,0.0,0.0,0.0,0.0,0.0,0.0,0.0,0.012451158836483955,0.06341390311717987,-0.025791365653276443,0.0,0.0,0.0,0.0,0.0,0.0,0.0,0.0,0.0,0.8310256600379944,-0.24948717653751373,9.29564094543457,0.0,0.0,0.0,0.0,0.0,0.0,0.0,0.0,0.0
1646244020.2109525,7585,1646244020,210498663,,0.0,0.0,0.0,0.0,0.0,0.0,0.0,0.0,0.0,0.0,0.0,0.0,0.0,0.01777748018503189,0.0761970803141594,-0.011942928656935692,0.0,0.0,0.0,0.0,0.0,0.0,0.0,0.0,0.0,0.8166666626930237,-0.3571794927120209,9.54692268371582,0.0,0.0,0.0,0.0,0.0,0.0,0.0,0.0,0.0
1646244020.2132354,7586,1646244020,212713691,,0.0,0.0,0.0,0.0,0.0,0.0,0.0,0.0,0.0,0.0,0.0,0.0,0.0,0.012451158836483955,0.06021811440587044,-0.028987158089876175,0.0,0.0,0.0,0.0,0.0,0.0,0.0,0.0,0.0,0.6246154308319092,-0.016153845936059952,9.304615020751953,0.0,0.0,0.0,0.0,0.0,0.0,0.0,0.0,0.0
1646244020.2164,7587,1646244020,214891515,,0.0,0.0,0.0,0.0,0.0,0.0,0.0,0.0,0.0,0.0,0.0,0.0,0.0,0.014581688679754734,0.07726234942674637,0.004036037251353264,0.0,0.0,0.0,0.0,0.0,0.0,0.0,0.0,0.0,0.3302564322948456,-0.4056410491466522,9.780256271362305,0.0,0.0,0.0,0.0,0.0,0.0,0.0,0.0,0.0
1646244020.2174273,7588,1646244020,217105233,,0.0,0.0,0.0,0.0,0.0,0.0,0.0,0.0,0.0,0.0,0.0,0.0,0.0,0.013516423292458057,0.07300128787755966,-0.05029244348406792,0.0,0.0,0.0,0.0,0.0,0.0,0.0,0.0,0.0,0.06461538374423981,0.1561538577079773,10.40128231048584,0.0,0.0,0.0,0.0,0.0,0.0,0.0,0.0,0.0
1646244020.219722,7589,1646244020,219303818,,0.0,0.0,0.0,0.0,0.0,0.0,0.0,0.0,0.0,0.0,0.0,0.0,0.0,0.006059573031961918,0.06341390311717987,-0.011942928656935692,0.0,0.0,0.0,0.0,0.0,0.0,0.0,0.0,0.0,0.17230769991874695,-0.38948720693588257,9.9884614944458,0.0,0.0,0.0,0.0,0.0,0.0,0.0,0.0,0.0
1646244020.2218864,7590,1646244020,221561551,,0.0,0.0,0.0,0.0,0.0,0.0,0.0,0.0,0.0,0.0,0.0,0.0,0.0,-0.0003320134710520506,0.08258867263793945,-0.03750927746295929,0.0,0.0,0.0,0.0,0.0,0.0,0.0,0.0,0.0,0.40743592381477356,-0.24948717653751373,9.625897407531738,0.0,0.0,0.0,0.0,0.0,0.0,0.0,0.0,0.0
1646244020.224027,7591,1646244020,223799081,,0.0,0.0,0.0,0.0,0.0,0.0,0.0,0.0,0.0,0.0,0.0,0.0,0.0,-0.0013972773449495435,0.09856763482093811,-0.04070506617426872,0.0,0.0,0.0,0.0,0.0,0.0,0.0,0.0,0.0,0.3823077082633972,-0.23512820899486542,9.559487342834473,0.0,0.0,0.0,0.0,0.0,0.0,0.0,0.0,0.0
1646244020.2265341,7592,1646244020,226081502,,0.0,0.0,0.0,0.0,0.0,0.0,0.0,0.0,0.0,0.0,0.0,0.0,0.0,-0.012049921788275242,0.09750237315893173,-0.02685662917792797,0.0,0.0,0.0,0.0,0.0,0.0,0.0,0.0,0.0,0.7394872307777405,-0.5617948770523071,9.245384216308594,0.0,0.0,0.0,0.0,0.0,0.0,0.0,0.0,0.0
1646244020.2287235,7593,1646244020,228358559,,0.0,0.0,0.0,0.0,0.0,0.0,0.0,0.0,0.0,0.0,0.0,0.0,0.0,0.006059573031961918,0.1038939505815506,-0.04603138566017151,0.0,0.0,0.0,0.0,0.0,0.0,0.0,0.0,0.0,0.5348718166351318,-0.3643589913845062,9.419486999511719,0.0,0.0,0.0,0.0,0.0,0.0,0.0,0.0,0.0
1646244020.230997,7594,1646244020,230644527,,0.0,0.0,0.0,0.0,0.0,0.0,0.0,0.0,0.0,0.0,0.0,0.0,0.0,-0.028028886765241623,0.1358518898487091,-0.02685662917792797,0.0,0.0,0.0,0.0,0.0,0.0,0.0,0.0,0.0,0.5294871926307678,-0.5546153783798218,9.14846134185791,0.0,0.0,0.0,0.0,0.0,0.0,0.0,0.0,0.0
1646244020.2332451,7595,1646244020,232874669,,0.0,0.0,0.0,0.0,0.0,0.0,0.0,0.0,0.0,0.0,0.0,0.0,0.0,-0.016310978680849075,0.12626449763774872,-0.05029244348406792,0.0,0.0,0.0,0.0,0.0,0.0,0.0,0.0,0.0,0.19564102590084076,0.05743589997291565,9.952564239501953,0.0,0.0,0.0,0.0,0.0,0.0,0.0,0.0,0.0
1646244020.2354975,7596,1646244020,235099017,,0.0,0.0,0.0,0.0,0.0,0.0,0.0,0.0,0.0,0.0,0.0,0.0,0.0,-0.013115186244249344,0.11454659700393677,-0.05987982451915741,0.0,0.0,0.0,0.0,0.0,0.0,0.0,0.0,0.0,0.10769230872392654,-0.32846155762672424,9.984871864318848,0.0,0.0,0.0,0.0,0.0,0.0,0.0,0.0,0.0
1646244020.2377136,7597,1646244020,237321707,,0.0,0.0,0.0,0.0,0.0,0.0,0.0,0.0,0.0,0.0,0.0,0.0,0.0,-0.04400784894824028,0.12093818187713623,-0.04922718182206154,0.0,0.0,0.0,0.0,0.0,0.0,0.0,0.0,0.0,0.7143589854240417,-0.1328205168247223,9.10897445678711,0.0,0.0,0.0,0.0,0.0,0.0,0.0,0.0,0.0
1646244020.2398784,7598,1646244020,239536050,,0.0,0.0,0.0,0.0,0.0,0.0,0.0,0.0,0.0,0.0,0.0,0.0,0.0,-0.017376242205500603,0.1497003138065338,-0.047096651047468185,0.0,0.0,0.0,0.0,0.0,0.0,0.0,0.0,0.0,0.42000001668930054,-0.2566666603088379,9.363846778869629,0.0,0.0,0.0,0.0,0.0,0.0,0.0,0.0,0.0
1646244020.2423034,7599,1646244020,241813761,,0.0,0.0,0.0,0.0,0.0,0.0,0.0,0.0,0.0,0.0,0.0,0.0,0.0,-0.02163730002939701,0.12093818187713623,-0.057749297469854355,0.0,0.0,0.0,0.0,0.0,0.0,0.0,0.0,0.0,0.38769233226776123,-0.2476923167705536,9.248974800109863,0.0,0.0,0.0,0.0,0.0,0.0,0.0,0.0,0.0
1646244020.2445822,7600,1646244020,244066402,,0.0,0.0,0.0,0.0,0.0,0.0,0.0,0.0,0.0,0.0,0.0,0.0,0.0,-0.026963621377944946,0.10922027379274368,-0.032182954251766205,0.0,0.0,0.0,0.0,0.0,0.0,0.0,0.0,0.0,-0.00897435937076807,0.10948718339204788,10.275640487670898,0.0,0.0,0.0,0.0,0.0,0.0,0.0,0.0,0.0
1646244020.2466626,7601,1646244020,246278446,,0.0,0.0,0.0,0.0,0.0,0.0,0.0,0.0,0.0,0.0,0.0,0.0,0.0,0.01777748018503189,0.10708974301815033,-0.02046504244208336,0.0,0.0,0.0,0.0,0.0,0.0,0.0,0.0,0.0,-0.1741025745868683,-0.01974359154701233,9.884359359741211,0.0,0.0,0.0,0.0,0.0,0.0,0.0,0.0,0.0
1646244020.2489576,7602,1646244020,248534180,,0.0,0.0,0.0,0.0,0.0,0.0,0.0,0.0,0.0,0.0,0.0,0.0,0.0,0.011385894380509853,0.10815500468015671,-0.027921894565224648,0.0,0.0,0.0,0.0,0.0,0.0,0.0,0.0,0.0,0.30512821674346924,-0.08435897529125214,9.794615745544434,0.0,0.0,0.0,0.0,0.0,0.0,0.0,0.0,0.0
1646244020.2510722,7603,1646244020,250745030,,0.0,0.0,0.0,0.0,0.0,0.0,0.0,0.0,0.0,0.0,0.0,0.0,0.0,0.02523433417081833,0.08258867263793945,-0.0076818703673779964,0.0,0.0,0.0,0.0,0.0,0.0,0.0,0.0,0.0,0.2566666603088379,-0.1382051259279251,9.841282844543457,0.0,0.0,0.0,0.0,0.0,0.0,0.0,0.0,0.0
1646244020.253283,7604,1646244020,252986633,,0.0,0.0,0.0,0.0,0.0,0.0,0.0,0.0,0.0,0.0,0.0,0.0,0.0,0.05719226226210594,0.09111078828573227,-0.027921894565224648,0.0,0.0,0.0,0.0,0.0,0.0,0.0,0.0,0.0,0.4325641095638275,-0.05743589997291565,9.433846473693848,0.0,0.0,0.0,0.0,0.0,0.0,0.0,0.0,0.0
1646244020.2556367,7605,1646244020,255246711,,0.0,0.0,0.0,0.0,0.0,0.0,0.0,0.0,0.0,0.0,0.0,0.0,0.0,0.0497354120016098,0.094306580722332,-0.005551342852413654,0.0,0.0,0.0,0.0,0.0,0.0,0.0,0.0,0.0,0.18487180769443512,-0.31948718428611755,9.528974533081055,0.0,0.0,0.0,0.0,0.0,0.0,0.0,0.0,0.0
1646244020.2591116,7606,1646244020,257524040,,0.0,0.0,0.0,0.0,0.0,0.0,0.0,0.0,0.0,0.0,0.0,0.0,0.0,0.03482171148061752,0.0708707645535469,0.0008402442326769233,0.0,0.0,0.0,0.0,0.0,0.0,0.0,0.0,0.0,-0.15435898303985596,0.2800000011920929,10.349230766296387,0.0,0.0,0.0,0.0,0.0,0.0,0.0,0.0,0.0
1646244020.2601252,7607,1646244020,259736000,,0.0,0.0,0.0,0.0,0.0,0.0,0.0,0.0,0.0,0.0,0.0,0.0,0.0,0.038017503917217255,0.04850020632147789,-0.01087766420096159,0.0,0.0,0.0,0.0,0.0,0.0,0.0,0.0,0.0,-0.31589746475219727,-0.016153845936059952,10.471282005310059,0.0,0.0,0.0,0.0,0.0,0.0,0.0,0.0,0.0
1646244020.2623847,7608,1646244020,262000657,,0.0,0.0,0.0,0.0,0.0,0.0,0.0,0.0,0.0,0.0,0.0,0.0,0.0,0.03695223852992058,0.0527612641453743,0.0019055086886510253,0.0,0.0,0.0,0.0,0.0,0.0,0.0,0.0,0.0,-0.6246154308319092,-0.05025641247630119,10.735127449035645,0.0,0.0,0.0,0.0,0.0,0.0,0.0,0.0,0.0
1646244020.2647374,7609,1646244020,264283610,,0.0,0.0,0.0,0.0,0.0,0.0,0.0,0.0,0.0,0.0,0.0,0.0,0.0,0.0220385380089283,0.04956547170877457,0.005101301707327366,0.0,0.0,0.0,0.0,0.0,0.0,0.0,0.0,0.0,-0.45230770111083984,0.003589743748307228,10.851795196533203,0.0,0.0,0.0,0.0,0.0,0.0,0.0,0.0,0.0
1646244020.2669663,7610,1646244020,266518958,,0.0,0.0,0.0,0.0,0.0,0.0,0.0,0.0,0.0,0.0,0.0,0.0,0.0,0.001798515673726797,0.029325447976589203,0.002970772795379162,0.0,0.0,0.0,0.0,0.0,0.0,0.0,0.0,0.0,-0.24948717653751373,-0.23333333432674408,10.329487800598145,0.0,0.0,0.0,0.0,0.0,0.0,0.0,0.0,0.0
1646244020.2691147,7611,1646244020,268731239,,0.0,0.0,0.0,0.0,0.0,0.0,0.0,0.0,0.0,0.0,0.0,0.0,0.0,0.00925536546856165,0.020803332328796387,0.04025502875447273,0.0,0.0,0.0,0.0,0.0,0.0,0.0,0.0,0.0,-0.1741025745868683,-0.044871795922517776,10.381539344787598,0.0,0.0,0.0,0.0,0.0,0.0,0.0,0.0,0.0
1646244020.271285,7612,1646244020,270941690,,0.0,0.0,0.0,0.0,0.0,0.0,0.0,0.0,0.0,0.0,0.0,0.0,0.0,-0.009919392876327038,0.028260184451937675,0.0008402442326769233,0.0,0.0,0.0,0.0,0.0,0.0,0.0,0.0,0.0,-0.28717949986457825,-0.25846153497695923,10.071025848388672,0.0,0.0,0.0,0.0,0.0,0.0,0.0,0.0,0.0
1646244020.2736766,7613,1646244020,273150044,,0.0,0.0,0.0,0.0,0.0,0.0,0.0,0.0,0.0,0.0,0.0,0.0,0.0,-0.01098465733230114,0.009085424244403839,0.024276060983538628,0.0,0.0,0.0,0.0,0.0,0.0,0.0,0.0,0.0,-0.9979487061500549,0.13461539149284363,10.948718070983887,0.0,0.0,0.0,0.0,0.0,0.0,0.0,0.0,0.0
1646244020.2759328,7614,1646244020,275446613,,0.0,0.0,0.0,0.0,0.0,0.0,0.0,0.0,0.0,0.0,0.0,0.0,0.0,-0.009919392876327038,0.025064390152692795,-0.005551342852413654,0.0,0.0,0.0,0.0,0.0,0.0,0.0,0.0,0.0,-0.4217948913574219,0.08076923340559006,10.465897560119629,0.0,0.0,0.0,0.0,0.0,0.0,0.0,0.0,0.0
1646244020.2781265,7615,1646244020,277749897,,0.0,0.0,0.0,0.0,0.0,0.0,0.0,0.0,0.0,0.0,0.0,0.0,0.0,0.008190101943910122,-0.0036977482959628105,-0.004486078396439552,0.0,0.0,0.0,0.0,0.0,0.0,0.0,0.0,0.0,-0.47564104199409485,-0.05923077091574669,10.28820514678955,0.0,0.0,0.0,0.0,0.0,0.0,0.0,0.0,0.0
1646244020.2802746,7616,1646244020,279946859,,0.0,0.0,0.0,0.0,0.0,0.0,0.0,0.0,0.0,0.0,0.0,0.0,0.0,0.0007332512177526951,0.032521240413188934,0.005101301707327366,0.0,0.0,0.0,0.0,0.0,0.0,0.0,0.0,0.0,-0.33384618163108826,0.2925640940666199,10.001025199890137,0.0,0.0,0.0,0.0,0.0,0.0,0.0,0.0,0.0
1646244020.282679,7617,1646244020,282173259,,0.0,0.0,0.0,0.0,0.0,0.0,0.0,0.0,0.0,0.0,0.0,0.0,0.0,-0.005658335518091917,0.013346482068300247,0.025341326370835304,0.0,0.0,0.0,0.0,0.0,0.0,0.0,0.0,0.0,-0.1705128252506256,-0.18128205835819244,10.10333251953125,0.0,0.0,0.0,0.0,0.0,0.0,0.0,0.0,0.0
1646244020.2850313,7618,1646244020,284386644,,0.0,0.0,0.0,0.0,0.0,0.0,0.0,0.0,0.0,0.0,0.0,0.0,0.0,0.026299597695469856,-0.01648092083632946,-0.017269250005483627,0.0,0.0,0.0,0.0,0.0,0.0,0.0,0.0,0.0,-0.7700000405311584,0.4828205108642578,10.65794849395752,0.0,0.0,0.0,0.0,0.0,0.0,0.0,0.0,0.0
1646244020.2870705,7619,1646244020,286621092,,0.0,0.0,0.0,0.0,0.0,0.0,0.0,0.0,0.0,0.0,0.0,0.0,0.0,0.03269118070602417,-0.009024071507155895,0.014688681811094284,0.0,0.0,0.0,0.0,0.0,0.0,0.0,0.0,0.0,-0.7789744138717651,0.2764102518558502,10.686666488647461,0.0,0.0,0.0,0.0,0.0,0.0,0.0,0.0,0.0
1646244020.2900343,7620,1646244020,288855804,,0.0,0.0,0.0,0.0,0.0,0.0,0.0,0.0,0.0,0.0,0.0,0.0,0.0,0.024169068783521652,-0.04311252757906914,0.025341326370835304,0.0,0.0,0.0,0.0,0.0,0.0,0.0,0.0,0.0,-0.8920512795448303,0.2028205245733261,10.722564697265625,0.0,0.0,0.0,0.0,0.0,0.0,0.0,0.0,0.0
1646244020.2914987,7621,1646244020,291082481,,0.0,0.0,0.0,0.0,0.0,0.0,0.0,0.0,0.0,0.0,0.0,0.0,0.0,0.019908009096980095,-0.0036977482959628105,0.01681920886039734,0.0,0.0,0.0,0.0,0.0,0.0,0.0,0.0,0.0,-0.6515384912490845,0.32846155762672424,10.523333549499512,0.0,0.0,0.0,0.0,0.0,0.0,0.0,0.0,0.0
1646244020.2937343,7622,1646244020,293273138,,0.0,0.0,0.0,0.0,0.0,0.0,0.0,0.0,0.0,0.0,0.0,0.0,0.0,0.019908009096980095,-0.03778620809316635,0.02747185342013836,0.0,0.0,0.0,0.0,0.0,0.0,0.0,0.0,0.0,-0.1471794843673706,-0.0735897421836853,9.627692222595215,0.0,0.0,0.0,0.0,0.0,0.0,0.0,0.0,0.0
1646244020.2960255,7623,1646244020,295490983,,0.0,0.0,0.0,0.0,0.0,0.0,0.0,0.0,0.0,0.0,0.0,0.0,0.0,0.041213300079107285,-0.04843885079026222,0.002970772795379162,0.0,0.0,0.0,0.0,0.0,0.0,0.0,0.0,0.0,-0.5097435712814331,0.42538464069366455,10.428204536437988,0.0,0.0,0.0,0.0,0.0,0.0,0.0,0.0,0.0
1646244020.2988863,7624,1646244020,297736110,,0.0,0.0,0.0,0.0,0.0,0.0,0.0,0.0,0.0,0.0,0.0,0.0,0.0,-0.015245715156197548,-0.08998416364192963,0.008297095075249672,0.0,0.0,0.0,0.0,0.0,0.0,0.0,0.0,0.0,-0.04307692497968674,0.4953846335411072,9.859230041503906,0.0,0.0,0.0,0.0,0.0,0.0,0.0,0.0,0.0
1646244020.3002906,7625,1646244020,299970470,,0.0,0.0,0.0,0.0,0.0,0.0,0.0,0.0,0.0,0.0,0.0,0.0,0.0,0.01777748018503189,-0.05909150093793869,0.01681920886039734,0.0,0.0,0.0,0.0,0.0,0.0,0.0,0.0,0.0,-0.6461538672447205,0.2297435998916626,10.133846282958984,0.0,0.0,0.0,0.0,0.0,0.0,0.0,0.0,0.0
1646244020.302438,7626,1646244020,302161159,,0.0,0.0,0.0,0.0,0.0,0.0,0.0,0.0,0.0,0.0,0.0,0.0,0.0,0.003929044120013714,-0.07293993979692459,0.00723183061927557,0.0,0.0,0.0,0.0,0.0,0.0,0.0,0.0,0.0,-0.5474358797073364,-0.14358974993228912,10.176923751831055,0.0,0.0,0.0,0.0,0.0,0.0,0.0,0.0,0.0
1646244020.3048077,7627,1646244020,304366484,,0.0,0.0,0.0,0.0,0.0,0.0,0.0,0.0,0.0,0.0,0.0,0.0,0.0,-0.0003320134710520506,-0.08039677888154984,0.022145532071590424,0.0,0.0,0.0,0.0,0.0,0.0,0.0,0.0,0.0,-0.06282051652669907,0.2117948830127716,8.708718299865723,0.0,0.0,0.0,0.0,0.0,0.0,0.0,0.0,0.0
1646244020.3070045,7628,1646244020,306589444,,0.0,0.0,0.0,0.0,0.0,0.0,0.0,0.0,0.0,0.0,0.0,0.0,0.0,-0.017376242205500603,-0.08891889452934265,0.017884474247694016,0.0,0.0,0.0,0.0,0.0,0.0,0.0,0.0,0.0,-0.28179487586021423,0.36974361538887024,9.755127906799316,0.0,0.0,0.0,0.0,0.0,0.0,0.0,0.0,0.0
1646244020.3093793,7629,1646244020,308874182,,0.0,0.0,0.0,0.0,0.0,0.0,0.0,0.0,0.0,0.0,0.0,0.0,0.0,0.001798515673726797,-0.0772009864449501,0.021080268546938896,0.0,0.0,0.0,0.0,0.0,0.0,0.0,0.0,0.0,-0.014358974993228912,-0.2620512843132019,8.890000343322754,0.0,0.0,0.0,0.0,0.0,0.0,0.0,0.0,0.0
1646244020.3115623,7630,1646244020,311100400,,0.0,0.0,0.0,0.0,0.0,0.0,0.0,0.0,0.0,0.0,0.0,0.0,0.0,-0.02909415028989315,-0.09957154095172882,-0.01087766420096159,0.0,0.0,0.0,0.0,0.0,0.0,0.0,0.0,0.0,-0.2387179583311081,0.5815384387969971,10.650769233703613,0.0,0.0,0.0,0.0,0.0,0.0,0.0,0.0,0.0
1646244020.3137093,7631,1646244020,313306702,,0.0,0.0,0.0,0.0,0.0,0.0,0.0,0.0,0.0,0.0,0.0,0.0,0.0,-0.022702563554048538,-0.08998416364192963,0.005101301707327366,0.0,0.0,0.0,0.0,0.0,0.0,0.0,0.0,0.0,-0.8166666626930237,0.5492307543754578,9.690512657165527,0.0,0.0,0.0,0.0,0.0,0.0,0.0,0.0,0.0
1646244020.316026,7632,1646244020,315547281,,0.0,0.0,0.0,0.0,0.0,0.0,0.0,0.0,0.0,0.0,0.0,0.0,0.0,-0.016310978680849075,-0.10276733338832855,-0.0162039864808321,0.0,0.0,0.0,0.0,0.0,0.0,0.0,0.0,0.0,-0.6623077392578125,0.6802564263343811,10.272051811218262,0.0,0.0,0.0,0.0,0.0,0.0,0.0,0.0,0.0
1646244020.3181584,7633,1646244020,317760386,,0.0,0.0,0.0,0.0,0.0,0.0,0.0,0.0,0.0,0.0,0.0,0.0,0.0,0.00925536546856165,-0.09531047940254211,-0.0076818703673779964,0.0,0.0,0.0,0.0,0.0,0.0,0.0,0.0,0.0,-0.3912820518016815,0.2566666603088379,9.64384651184082,0.0,0.0,0.0,0.0,0.0,0.0,0.0,0.0,0.0
1646244020.3205106,7634,1646244020,319973831,,0.0,0.0,0.0,0.0,0.0,0.0,0.0,0.0,0.0,0.0,0.0,0.0,0.0,0.0007332512177526951,-0.09637574851512909,0.010427623987197876,0.0,0.0,0.0,0.0,0.0,0.0,0.0,0.0,0.0,0.20820513367652893,0.09153846651315689,9.631281852722168,0.0,0.0,0.0,0.0,0.0,0.0,0.0,0.0,0.0
1646244020.3226619,7635,1646244020,322251132,,0.0,0.0,0.0,0.0,0.0,0.0,0.0,0.0,0.0,0.0,0.0,0.0,0.0,0.014581688679754734,-0.1187463030219078,0.006166566163301468,0.0,0.0,0.0,0.0,0.0,0.0,0.0,0.0,0.0,-0.19205129146575928,0.36974361538887024,9.274102210998535,0.0,0.0,0.0,0.0,0.0,0.0,0.0,0.0,0.0
1646244020.3249736,7636,1646244020,324532335,,0.0,0.0,0.0,0.0,0.0,0.0,0.0,0.0,0.0,0.0,0.0,0.0,0.0,0.003929044120013714,-0.12513788044452667,0.01575394533574581,0.0,0.0,0.0,0.0,0.0,0.0,0.0,0.0,0.0,-0.5743589997291565,0.4882051348686218,10.044102668762207,0.0,0.0,0.0,0.0,0.0,0.0,0.0,0.0,0.0
1646244020.3271265,7637,1646244020,326767746,,0.0,0.0,0.0,0.0,0.0,0.0,0.0,0.0,0.0,0.0,0.0,0.0,0.0,0.02843012474477291,-0.1240726187825203,-0.008747135289013386,0.0,0.0,0.0,0.0,0.0,0.0,0.0,0.0,0.0,-0.5276923179626465,0.3948718011379242,10.065641403198242,0.0,0.0,0.0,0.0,0.0,0.0,0.0,0.0,0.0
1646244020.3293982,7638,1646244020,329013084,,0.0,0.0,0.0,0.0,0.0,0.0,0.0,0.0,0.0,0.0,0.0,0.0,0.0,0.0028637798968702555,-0.1240726187825203,0.0232107974588871,0.0,0.0,0.0,0.0,0.0,0.0,0.0,0.0,0.0,-0.7341026067733765,0.15076923370361328,10.327692031860352,0.0,0.0,0.0,0.0,0.0,0.0,0.0,0.0,0.0
1646244020.331599,7639,1646244020,331225620,,0.0,0.0,0.0,0.0,0.0,0.0,0.0,0.0,0.0,0.0,0.0,0.0,0.0,0.030560653656721115,-0.10702838748693466,0.02640658989548683,0.0,0.0,0.0,0.0,0.0,0.0,0.0,0.0,0.0,0.07717949151992798,0.4917948842048645,9.229230880737305,0.0,0.0,0.0,0.0,0.0,0.0,0.0,0.0,0.0
1646244020.3338246,7640,1646244020,333431560,,0.0,0.0,0.0,0.0,0.0,0.0,0.0,0.0,0.0,0.0,0.0,0.0,0.0,0.03375644609332085,-0.10702838748693466,0.01255815289914608,0.0,0.0,0.0,0.0,0.0,0.0,0.0,0.0,0.0,-0.21717949211597443,0.13641025125980377,9.685128211975098,0.0,0.0,0.0,0.0,0.0,0.0,0.0,0.0,0.0
1646244020.3367379,7641,1646244020,335670308,,0.0,0.0,0.0,0.0,0.0,0.0,0.0,0.0,0.0,0.0,0.0,0.0,0.0,0.02523433417081833,-0.08891889452934265,0.02747185342013836,0.0,0.0,0.0,0.0,0.0,0.0,0.0,0.0,0.0,-0.23512820899486542,0.025128206238150597,9.487691879272461,0.0,0.0,0.0,0.0,0.0,0.0,0.0,0.0,0.0
1646244020.3382037,7642,1646244020,337887976,,0.0,0.0,0.0,0.0,0.0,0.0,0.0,0.0,0.0,0.0,0.0,0.0,0.0,0.023103805258870125,-0.09637574851512909,0.0008402442326769233,0.0,0.0,0.0,0.0,0.0,0.0,0.0,0.0,0.0,-0.47025641798973083,0.36615386605262756,10.316923141479492,0.0,0.0,0.0,0.0,0.0,0.0,0.0,0.0,0.0
1646244020.3415394,7643,1646244020,340089364,,0.0,0.0,0.0,0.0,0.0,0.0,0.0,0.0,0.0,0.0,0.0,0.0,0.0,-0.013115186244249344,-0.10383259505033493,0.029602382332086563,0.0,0.0,0.0,0.0,0.0,0.0,0.0,0.0,0.0,-0.6838461756706238,0.2064102590084076,10.126666069030762,0.0,0.0,0.0,0.0,0.0,0.0,0.0,0.0,0.0
