Time,header.seq,header.stamp.secs,header.stamp.nsecs,header.frame_id,orientation.x,orientation.y,orientation.z,orientation.w,orientation_covariance_0,orientation_covariance_1,orientation_covariance_2,orientation_covariance_3,orientation_covariance_4,orientation_covariance_5,orientation_covariance_6,orientation_covariance_7,orientation_covariance_8,angular_velocity.x,angular_velocity.y,angular_velocity.z,angular_velocity_covariance_0,angular_velocity_covariance_1,angular_velocity_covariance_2,angular_velocity_covariance_3,angular_velocity_covariance_4,angular_velocity_covariance_5,angular_velocity_covariance_6,angular_velocity_covariance_7,angular_velocity_covariance_8,linear_acceleration.x,linear_acceleration.y,linear_acceleration.z,linear_acceleration_covariance_0,linear_acceleration_covariance_1,linear_acceleration_covariance_2,linear_acceleration_covariance_3,linear_acceleration_covariance_4,linear_acceleration_covariance_5,linear_acceleration_covariance_6,linear_acceleration_covariance_7,linear_acceleration_covariance_8
1646351045.548316,8209,1646351045,547830882,,0.0,0.0,0.0,0.0,0.0,0.0,0.0,0.0,0.0,0.0,0.0,0.0,0.0,0.01689365692436695,-0.009470346383750439,0.00686607463285327,0.0,0.0,0.0,0.0,0.0,0.0,0.0,0.0,0.0,0.18666666746139526,-0.2656410336494446,9.322564125061035,0.0,0.0,0.0,0.0,0.0,0.0,0.0,0.0,0.0
1646351045.5504735,8210,1646351045,550081360,,0.0,0.0,0.0,0.0,0.0,0.0,0.0,0.0,0.0,0.0,0.0,0.0,0.0,0.017958922311663628,-0.008405081927776337,-0.013373949564993382,0.0,0.0,0.0,0.0,0.0,0.0,0.0,0.0,0.0,0.4038461744785309,0.17769230902194977,10.078205108642578,0.0,0.0,0.0,0.0,0.0,0.0,0.0,0.0,0.0
1646351045.5526214,8211,1646351045,552269182,,0.0,0.0,0.0,0.0,0.0,0.0,0.0,0.0,0.0,0.0,0.0,0.0,0.0,0.0009146920638158917,-0.0147966668009758,-0.0101781552657485,0.0,0.0,0.0,0.0,0.0,0.0,0.0,0.0,0.0,0.5205128192901611,0.00897435937076807,9.64384651184082,0.0,0.0,0.0,0.0,0.0,0.0,0.0,0.0,0.0
1646351045.5547934,8212,1646351045,554462724,,0.0,0.0,0.0,0.0,0.0,0.0,0.0,0.0,0.0,0.0,0.0,0.0,0.0,-0.00015057262498885393,0.020357057452201843,0.0026050168089568615,0.0,0.0,0.0,0.0,0.0,0.0,0.0,0.0,0.0,0.4953846335411072,0.12743589282035828,9.715641021728516,0.0,0.0,0.0,0.0,0.0,0.0,0.0,0.0,0.0
1646351045.5569868,8213,1646351045,556647333,,0.0,0.0,0.0,0.0,0.0,0.0,0.0,0.0,0.0,0.0,0.0,0.0,0.0,0.0030452206265181303,0.00011703448399202898,-0.0027213047724217176,0.0,0.0,0.0,0.0,0.0,0.0,0.0,0.0,0.0,0.5510256290435791,0.014358974993228912,9.622307777404785,0.0,0.0,0.0,0.0,0.0,0.0,0.0,0.0,0.0
1646351045.5596743,8214,1646351045,558889975,,0.0,0.0,0.0,0.0,0.0,0.0,0.0,0.0,0.0,0.0,0.0,0.0,0.0,0.0009146920638158917,-0.010535608977079391,-0.008047626353800297,0.0,0.0,0.0,0.0,0.0,0.0,0.0,0.0,0.0,0.4953846335411072,0.2297435998916626,9.735384941101074,0.0,0.0,0.0,0.0,0.0,0.0,0.0,0.0,0.0
1646351045.561458,8215,1646351045,561163515,,0.0,0.0,0.0,0.0,0.0,0.0,0.0,0.0,0.0,0.0,0.0,0.0,0.0,0.012632600963115692,-0.004144023172557354,-0.020830798894166946,0.0,0.0,0.0,0.0,0.0,0.0,0.0,0.0,0.0,0.38948720693588257,0.28717949986457825,10.05666732788086,0.0,0.0,0.0,0.0,0.0,0.0,0.0,0.0,0.0
1646351045.5637076,8216,1646351045,563352379,,0.0,0.0,0.0,0.0,0.0,0.0,0.0,0.0,0.0,0.0,0.0,0.0,0.0,0.02008945122361183,0.004378091543912888,0.01112713199108839,0.0,0.0,0.0,0.0,0.0,0.0,0.0,0.0,0.0,0.23512820899486542,-0.22256410121917725,9.432050704956055,0.0,0.0,0.0,0.0,0.0,0.0,0.0,0.0,0.0
1646351045.5659957,8217,1646351045,565580447,,0.0,0.0,0.0,0.0,0.0,0.0,0.0,0.0,0.0,0.0,0.0,0.0,0.0,0.001979956403374672,-0.0147966668009758,0.0058008101768791676,0.0,0.0,0.0,0.0,0.0,0.0,0.0,0.0,0.0,0.5097435712814331,0.21000000834465027,10.045896530151367,0.0,0.0,0.0,0.0,0.0,0.0,0.0,0.0,0.0
1646351045.5681486,8218,1646351045,567813567,,0.0,0.0,0.0,0.0,0.0,0.0,0.0,0.0,0.0,0.0,0.0,0.0,0.0,0.006241013761609793,-0.003078758716583252,0.01112713199108839,0.0,0.0,0.0,0.0,0.0,0.0,0.0,0.0,0.0,0.3410256505012512,-0.2117948830127716,9.374615669250488,0.0,0.0,0.0,0.0,0.0,0.0,0.0,0.0,0.0
1646351045.570346,8219,1646351045,570016683,,0.0,0.0,0.0,0.0,0.0,0.0,0.0,0.0,0.0,0.0,0.0,0.0,0.0,-0.00015057262498885393,0.010769677348434925,-0.009112890809774399,0.0,0.0,0.0,0.0,0.0,0.0,0.0,0.0,0.0,0.45769232511520386,0.25487178564071655,10.017179489135742,0.0,0.0,0.0,0.0,0.0,0.0,0.0,0.0,0.0
1646351045.572653,8220,1646351045,572182869,,0.0,0.0,0.0,0.0,0.0,0.0,0.0,0.0,0.0,0.0,0.0,0.0,0.0,-0.009737951681017876,-0.013731402345001698,-0.0027213047724217176,0.0,0.0,0.0,0.0,0.0,0.0,0.0,0.0,0.0,0.6641026139259338,0.01794871874153614,9.624102592468262,0.0,0.0,0.0,0.0,0.0,0.0,0.0,0.0,0.0
1646351045.5747678,8221,1646351045,574389759,,0.0,0.0,0.0,0.0,0.0,0.0,0.0,0.0,0.0,0.0,0.0,0.0,0.0,0.009436807595193386,0.019291793927550316,0.000474488188046962,0.0,0.0,0.0,0.0,0.0,0.0,0.0,0.0,0.0,0.5456410050392151,0.3715384900569916,9.69410228729248,0.0,0.0,0.0,0.0,0.0,0.0,0.0,0.0,0.0
1646351045.5771625,8222,1646351045,576638038,,0.0,0.0,0.0,0.0,0.0,0.0,0.0,0.0,0.0,0.0,0.0,0.0,0.0,-0.017194801941514015,-0.004144023172557354,0.014322925359010696,0.0,0.0,0.0,0.0,0.0,0.0,0.0,0.0,0.0,0.5582051277160645,0.2925640940666199,10.015384674072266,0.0,0.0,0.0,0.0,0.0,0.0,0.0,0.0,0.0
1646351045.5792418,8223,1646351045,578882894,,0.0,0.0,0.0,0.0,0.0,0.0,0.0,0.0,0.0,0.0,0.0,0.0,0.0,-0.013999010436236858,0.03314023092389107,0.0047355457209050655,0.0,0.0,0.0,0.0,0.0,0.0,0.0,0.0,0.0,0.5205128192901611,0.11307692527770996,9.530769348144531,0.0,0.0,0.0,0.0,0.0,0.0,0.0,0.0,0.0
1646351045.581538,8224,1646351045,581164725,,0.0,0.0,0.0,0.0,0.0,0.0,0.0,0.0,0.0,0.0,0.0,0.0,0.0,0.0030452206265181303,-0.004144023172557354,0.010061867535114288,0.0,0.0,0.0,0.0,0.0,0.0,0.0,0.0,0.0,0.42538464069366455,0.29615384340286255,9.89871883392334,0.0,0.0,0.0,0.0,0.0,0.0,0.0,0.0,0.0
1646351045.583815,8225,1646351045,583410953,,0.0,0.0,0.0,0.0,0.0,0.0,0.0,0.0,0.0,0.0,0.0,0.0,0.0,-0.01932533085346222,0.034205492585897446,0.008996603079140186,0.0,0.0,0.0,0.0,0.0,0.0,0.0,0.0,0.0,0.6300000548362732,-0.15076923370361328,9.572051048278809,0.0,0.0,0.0,0.0,0.0,0.0,0.0,0.0,0.0
1646351045.5860736,8226,1646351045,585674445,,0.0,0.0,0.0,0.0,0.0,0.0,0.0,0.0,0.0,0.0,0.0,0.0,0.0,0.0030452206265181303,-0.020122988149523735,-0.0027213047724217176,0.0,0.0,0.0,0.0,0.0,0.0,0.0,0.0,0.0,0.3482051491737366,0.3266666829586029,10.14640998840332,0.0,0.0,0.0,0.0,0.0,0.0,0.0,0.0,0.0
1646351045.5882514,8227,1646351045,587909683,,0.0,0.0,0.0,0.0,0.0,0.0,0.0,0.0,0.0,0.0,0.0,0.0,0.0,0.01156733650714159,0.006508619990199804,0.03243241831660271,0.0,0.0,0.0,0.0,0.0,0.0,0.0,0.0,0.0,0.4684615433216095,-0.003589743748307228,9.573845863342285,0.0,0.0,0.0,0.0,0.0,0.0,0.0,0.0,0.0
1646351045.5904915,8228,1646351045,590116113,,0.0,0.0,0.0,0.0,0.0,0.0,0.0,0.0,0.0,0.0,0.0,0.0,0.0,-0.01186848059296608,-0.005209287628531456,-0.012308684177696705,0.0,0.0,0.0,0.0,0.0,0.0,0.0,0.0,0.0,0.4971795082092285,0.26025640964508057,10.123077392578125,0.0,0.0,0.0,0.0,0.0,0.0,0.0,0.0,0.0
1646351045.5927606,8229,1646351045,592380578,,0.0,0.0,0.0,0.0,0.0,0.0,0.0,0.0,0.0,0.0,0.0,0.0,0.0,-0.002281100954860449,0.020357057452201843,0.007931338623166084,0.0,0.0,0.0,0.0,0.0,0.0,0.0,0.0,0.0,0.4738461673259735,0.24948717653751373,10.117691993713379,0.0,0.0,0.0,0.0,0.0,0.0,0.0,0.0,0.0
1646351045.595005,8230,1646351045,594553301,,0.0,0.0,0.0,0.0,0.0,0.0,0.0,0.0,0.0,0.0,0.0,0.0,0.0,0.014763129875063896,-0.011600873433053493,0.0036702812649309635,0.0,0.0,0.0,0.0,0.0,0.0,0.0,0.0,0.0,0.5976923108100891,0.12025640904903412,9.439230918884277,0.0,0.0,0.0,0.0,0.0,0.0,0.0,0.0,0.0
1646351045.5971842,8231,1646351045,596737872,,0.0,0.0,0.0,0.0,0.0,0.0,0.0,0.0,0.0,0.0,0.0,0.0,0.0,-0.008672687225043774,-0.0020134944934397936,-0.009112890809774399,0.0,0.0,0.0,0.0,0.0,0.0,0.0,0.0,0.0,0.4541025757789612,0.25846153497695923,10.006409645080566,0.0,0.0,0.0,0.0,0.0,0.0,0.0,0.0,0.0
1646351045.5993607,8232,1646351045,598964585,,0.0,0.0,0.0,0.0,0.0,0.0,0.0,0.0,0.0,0.0,0.0,0.0,0.0,-0.003346365410834551,0.00544335599988699,0.014322925359010696,0.0,0.0,0.0,0.0,0.0,0.0,0.0,0.0,0.0,0.6820513010025024,0.1974359005689621,9.537948608398438,0.0,0.0,0.0,0.0,0.0,0.0,0.0,0.0,0.0
1646351045.6016097,8233,1646351045,601184939,,0.0,0.0,0.0,0.0,0.0,0.0,0.0,0.0,0.0,0.0,0.0,0.0,0.0,-0.013999010436236858,0.009704413823783398,-0.005917098838835955,0.0,0.0,0.0,0.0,0.0,0.0,0.0,0.0,0.0,0.5205128192901611,0.24051281809806824,10.054871559143066,0.0,0.0,0.0,0.0,0.0,0.0,0.0,0.0,0.0
1646351045.6038325,8234,1646351045,603391573,,0.0,0.0,0.0,0.0,0.0,0.0,0.0,0.0,0.0,0.0,0.0,0.0,0.0,-0.009737951681017876,-0.004144023172557354,-0.008047626353800297,0.0,0.0,0.0,0.0,0.0,0.0,0.0,0.0,0.0,0.5097435712814331,-0.10410256683826447,9.45358943939209,0.0,0.0,0.0,0.0,0.0,0.0,0.0,0.0,0.0
1646351045.606098,8235,1646351045,605651986,,0.0,0.0,0.0,0.0,0.0,0.0,0.0,0.0,0.0,0.0,0.0,0.0,0.0,-0.007607422769069672,-0.003078758716583252,0.0015397525858134031,0.0,0.0,0.0,0.0,0.0,0.0,0.0,0.0,0.0,0.7556410431861877,0.2530769407749176,9.647436141967773,0.0,0.0,0.0,0.0,0.0,0.0,0.0,0.0,0.0
1646351045.608325,8236,1646351045,607896945,,0.0,0.0,0.0,0.0,0.0,0.0,0.0,0.0,0.0,0.0,0.0,0.0,0.0,-0.009737951681017876,-0.010535608977079391,0.0026050168089568615,0.0,0.0,0.0,0.0,0.0,0.0,0.0,0.0,0.0,0.8130769729614258,0.04307692497968674,9.505640983581543,0.0,0.0,0.0,0.0,0.0,0.0,0.0,0.0,0.0
1646351045.6105332,8237,1646351045,610146292,,0.0,0.0,0.0,0.0,0.0,0.0,0.0,0.0,0.0,0.0,0.0,0.0,0.0,0.022219980135560036,-0.007339817471802235,0.010061867535114288,0.0,0.0,0.0,0.0,0.0,0.0,0.0,0.0,0.0,0.8382051587104797,0.3446153998374939,10.252307891845703,0.0,0.0,0.0,0.0,0.0,0.0,0.0,0.0,0.0
1646351045.6127713,8238,1646351045,612347699,,0.0,0.0,0.0,0.0,0.0,0.0,0.0,0.0,0.0,0.0,0.0,0.0,0.0,0.015828393399715424,-0.007339817471802235,-0.013373949564993382,0.0,0.0,0.0,0.0,0.0,0.0,0.0,0.0,0.0,0.6264103055000305,0.4864102602005005,10.149999618530273,0.0,0.0,0.0,0.0,0.0,0.0,0.0,0.0,0.0
1646351045.6148887,8239,1646351045,614536588,,0.0,0.0,0.0,0.0,0.0,0.0,0.0,0.0,0.0,0.0,0.0,0.0,0.0,-0.010803216136991978,0.023552851751446724,0.012192396447062492,0.0,0.0,0.0,0.0,0.0,0.0,0.0,0.0,0.0,0.08615384995937347,-0.03948718309402466,9.317179679870605,0.0,0.0,0.0,0.0,0.0,0.0,0.0,0.0,0.0
1646351045.6169858,8240,1646351045,616718908,,0.0,0.0,0.0,0.0,0.0,0.0,0.0,0.0,0.0,0.0,0.0,0.0,0.0,-0.00015057262498885393,-0.024384047836065292,-0.021896062418818474,0.0,0.0,0.0,0.0,0.0,0.0,0.0,0.0,0.0,0.6479487419128418,0.2530769407749176,10.011795043945312,0.0,0.0,0.0,0.0,0.0,0.0,0.0,0.0,0.0
1646351045.6200755,8241,1646351045,618931274,,0.0,0.0,0.0,0.0,0.0,0.0,0.0,0.0,0.0,0.0,0.0,0.0,0.0,0.001979956403374672,-0.020122988149523735,0.017518719658255577,0.0,0.0,0.0,0.0,0.0,0.0,0.0,0.0,0.0,0.6443589925765991,-0.2441025674343109,9.451794624328613,0.0,0.0,0.0,0.0,0.0,0.0,0.0,0.0,0.0
1646351045.6214962,8242,1646351045,621167579,,0.0,0.0,0.0,0.0,0.0,0.0,0.0,0.0,0.0,0.0,0.0,0.0,0.0,-0.005476894788444042,-0.004144023172557354,0.0015397525858134031,0.0,0.0,0.0,0.0,0.0,0.0,0.0,0.0,0.0,0.4182051420211792,0.15256410837173462,9.977692604064941,0.0,0.0,0.0,0.0,0.0,0.0,0.0,0.0,0.0
1646351045.623725,8243,1646351045,623365480,,0.0,0.0,0.0,0.0,0.0,0.0,0.0,0.0,0.0,0.0,0.0,0.0,0.0,-0.013999010436236858,-0.011600873433053493,0.0164534542709589,0.0,0.0,0.0,0.0,0.0,0.0,0.0,0.0,0.0,0.6910256743431091,-0.06820512562990189,9.65999984741211,0.0,0.0,0.0,0.0,0.0,0.0,0.0,0.0,0.0
1646351045.625991,8244,1646351045,625550282,,0.0,0.0,0.0,0.0,0.0,0.0,0.0,0.0,0.0,0.0,0.0,0.0,0.0,-0.007607422769069672,0.004378091543912888,0.000474488188046962,0.0,0.0,0.0,0.0,0.0,0.0,0.0,0.0,0.0,0.6246154308319092,0.3266666829586029,9.85025691986084,0.0,0.0,0.0,0.0,0.0,0.0,0.0,0.0,0.0
1646351045.6280322,8245,1646351045,627745043,,0.0,0.0,0.0,0.0,0.0,0.0,0.0,0.0,0.0,0.0,0.0,0.0,0.0,-0.00654215831309557,-0.0147966668009758,-0.0005907765007577837,0.0,0.0,0.0,0.0,0.0,0.0,0.0,0.0,0.0,0.5994871854782104,-0.19384616613388062,9.64384651184082,0.0,0.0,0.0,0.0,0.0,0.0,0.0,0.0,0.0
1646351045.6303132,8246,1646351045,629987576,,0.0,0.0,0.0,0.0,0.0,0.0,0.0,0.0,0.0,0.0,0.0,0.0,0.0,-0.005476894788444042,0.007573884446173906,0.0058008101768791676,0.0,0.0,0.0,0.0,0.0,0.0,0.0,0.0,0.0,0.6515384912490845,0.05564102530479431,9.575640678405762,0.0,0.0,0.0,0.0,0.0,0.0,0.0,0.0,0.0
1646351045.6326199,8247,1646351045,632178515,,0.0,0.0,0.0,0.0,0.0,0.0,0.0,0.0,0.0,0.0,0.0,0.0,0.0,-0.02571691758930683,0.017161265015602112,-0.014439214020967484,0.0,0.0,0.0,0.0,0.0,0.0,0.0,0.0,0.0,0.6658974885940552,0.28717949986457825,9.94359016418457,0.0,0.0,0.0,0.0,0.0,0.0,0.0,0.0,0.0
1646351045.6348307,8248,1646351045,634410746,,0.0,0.0,0.0,0.0,0.0,0.0,0.0,0.0,0.0,0.0,0.0,0.0,0.0,0.010502072051167488,0.009704413823783398,-0.011243419721722603,0.0,0.0,0.0,0.0,0.0,0.0,0.0,0.0,0.0,0.5976923108100891,-0.1238461583852768,9.677948951721191,0.0,0.0,0.0,0.0,0.0,0.0,0.0,0.0,0.0
1646351045.6369846,8249,1646351045,636611561,,0.0,0.0,0.0,0.0,0.0,0.0,0.0,0.0,0.0,0.0,0.0,0.0,0.0,-0.02252112329006195,-0.004144023172557354,0.02071451209485531,0.0,0.0,0.0,0.0,0.0,0.0,0.0,0.0,0.0,0.5707692503929138,0.08615384995937347,9.997435569763184,0.0,0.0,0.0,0.0,0.0,0.0,0.0,0.0,0.0
1646351045.639185,8250,1646351045,638818699,,0.0,0.0,0.0,0.0,0.0,0.0,0.0,0.0,0.0,0.0,0.0,0.0,0.0,-0.002281100954860449,0.00544335599988699,-0.016569742932915688,0.0,0.0,0.0,0.0,0.0,0.0,0.0,0.0,0.0,0.5492307543754578,-0.16871795058250427,9.64923095703125,0.0,0.0,0.0,0.0,0.0,0.0,0.0,0.0,0.0
1646351045.6414618,8251,1646351045,641096888,,0.0,0.0,0.0,0.0,0.0,0.0,0.0,0.0,0.0,0.0,0.0,0.0,0.0,-0.02252112329006195,0.008639149367809296,0.0026050168089568615,0.0,0.0,0.0,0.0,0.0,0.0,0.0,0.0,0.0,0.5384615659713745,0.01974359154701233,9.435641288757324,0.0,0.0,0.0,0.0,0.0,0.0,0.0,0.0,0.0
1646351045.6436636,8252,1646351045,643336975,,0.0,0.0,0.0,0.0,0.0,0.0,0.0,0.0,0.0,0.0,0.0,0.0,0.0,-0.016129538416862488,0.008639149367809296,-0.0016560404328629375,0.0,0.0,0.0,0.0,0.0,0.0,0.0,0.0,0.0,0.5976923108100891,0.26025640964508057,10.10153865814209,0.0,0.0,0.0,0.0,0.0,0.0,0.0,0.0,0.0
1646351045.6458602,8253,1646351045,645523120,,0.0,0.0,0.0,0.0,0.0,0.0,0.0,0.0,0.0,0.0,0.0,0.0,0.0,0.001979956403374672,0.015030735172331333,0.000474488188046962,0.0,0.0,0.0,0.0,0.0,0.0,0.0,0.0,0.0,0.823846161365509,-0.2153846174478531,9.55589771270752,0.0,0.0,0.0,0.0,0.0,0.0,0.0,0.0,0.0
1646351045.6479814,8254,1646351045,647709619,,0.0,0.0,0.0,0.0,0.0,0.0,0.0,0.0,0.0,0.0,0.0,0.0,0.0,-0.02997797727584839,-0.004144023172557354,0.007931338623166084,0.0,0.0,0.0,0.0,0.0,0.0,0.0,0.0,0.0,0.7394872307777405,0.2153846174478531,10.198461532592773,0.0,0.0,0.0,0.0,0.0,0.0,0.0,0.0,0.0
1646351045.650558,8255,1646351045,649935303,,0.0,0.0,0.0,0.0,0.0,0.0,0.0,0.0,0.0,0.0,0.0,0.0,0.0,-0.002281100954860449,0.017161265015602112,0.0026050168089568615,0.0,0.0,0.0,0.0,0.0,0.0,0.0,0.0,0.0,0.5923076868057251,-0.12743589282035828,9.473333358764648,0.0,0.0,0.0,0.0,0.0,0.0,0.0,0.0,0.0
1646351045.65256,8256,1646351045,652250508,,0.0,0.0,0.0,0.0,0.0,0.0,0.0,0.0,0.0,0.0,0.0,0.0,0.0,-0.010803216136991978,0.003312827320769429,-0.008047626353800297,0.0,0.0,0.0,0.0,0.0,0.0,0.0,0.0,0.0,0.5294871926307678,-0.14000000059604645,9.49128246307373,0.0,0.0,0.0,0.0,0.0,0.0,0.0,0.0,0.0
1646351045.6548123,8257,1646351045,654494301,,0.0,0.0,0.0,0.0,0.0,0.0,0.0,0.0,0.0,0.0,0.0,0.0,0.0,-0.01932533085346222,0.038466550409793854,0.00686607463285327,0.0,0.0,0.0,0.0,0.0,0.0,0.0,0.0,0.0,0.5025641322135925,0.1328205168247223,9.975897789001465,0.0,0.0,0.0,0.0,0.0,0.0,0.0,0.0,0.0
1646351045.6571457,8258,1646351045,656736004,,0.0,0.0,0.0,0.0,0.0,0.0,0.0,0.0,0.0,0.0,0.0,0.0,0.0,-0.02997797727584839,0.00011703448399202898,0.0026050168089568615,0.0,0.0,0.0,0.0,0.0,0.0,0.0,0.0,0.0,0.6838461756706238,-0.05743589997291565,9.581025123596191,0.0,0.0,0.0,0.0,0.0,0.0,0.0,0.0,0.0
1646351045.6593392,8259,1646351045,658955669,,0.0,0.0,0.0,0.0,0.0,0.0,0.0,0.0,0.0,0.0,0.0,0.0,0.0,-0.010803216136991978,0.029944438487291336,0.0015397525858134031,0.0,0.0,0.0,0.0,0.0,0.0,0.0,0.0,0.0,0.6623077392578125,0.09871795028448105,9.866410255432129,0.0,0.0,0.0,0.0,0.0,0.0,0.0,0.0,0.0
1646351045.662204,8260,1646351045,661169841,,0.0,0.0,0.0,0.0,0.0,0.0,0.0,0.0,0.0,0.0,0.0,0.0,0.0,-0.017194801941514015,-0.0009482299210503697,-0.005917098838835955,0.0,0.0,0.0,0.0,0.0,0.0,0.0,0.0,0.0,0.947692334651947,-0.1884615421295166,9.56128215789795,0.0,0.0,0.0,0.0,0.0,0.0,0.0,0.0,0.0
1646351045.663751,8261,1646351045,663388912,,0.0,0.0,0.0,0.0,0.0,0.0,0.0,0.0,0.0,0.0,0.0,0.0,0.0,-0.01506427489221096,0.006508619990199804,0.0036702812649309635,0.0,0.0,0.0,0.0,0.0,0.0,0.0,0.0,0.0,0.5689743757247925,0.28717949986457825,10.121281623840332,0.0,0.0,0.0,0.0,0.0,0.0,0.0,0.0,0.0
1646351045.666005,8262,1646351045,665586699,,0.0,0.0,0.0,0.0,0.0,0.0,0.0,0.0,0.0,0.0,0.0,0.0,0.0,-0.018260065466165543,0.006508619990199804,0.0036702812649309635,0.0,0.0,0.0,0.0,0.0,0.0,0.0,0.0,0.0,0.6282051801681519,-0.23333333432674408,9.581025123596191,0.0,0.0,0.0,0.0,0.0,0.0,0.0,0.0,0.0
1646351045.6682417,8263,1646351045,667861356,,0.0,0.0,0.0,0.0,0.0,0.0,0.0,0.0,0.0,0.0,0.0,0.0,0.0,-0.016129538416862488,0.017161265015602112,-0.018700269982218742,0.0,0.0,0.0,0.0,0.0,0.0,0.0,0.0,0.0,0.5366666913032532,0.29615384340286255,9.981282234191895,0.0,0.0,0.0,0.0,0.0,0.0,0.0,0.0,0.0
1646351045.6705933,8264,1646351045,670136465,,0.0,0.0,0.0,0.0,0.0,0.0,0.0,0.0,0.0,0.0,0.0,0.0,0.0,-0.00015057262498885393,-0.0020134944934397936,-0.012308684177696705,0.0,0.0,0.0,0.0,0.0,0.0,0.0,0.0,0.0,0.7717949151992798,-0.003589743748307228,9.656410217285156,0.0,0.0,0.0,0.0,0.0,0.0,0.0,0.0,0.0
1646351045.672666,8265,1646351045,672337851,,0.0,0.0,0.0,0.0,0.0,0.0,0.0,0.0,0.0,0.0,0.0,0.0,0.0,-0.018260065466165543,0.00224756239913404,-0.005917098838835955,0.0,0.0,0.0,0.0,0.0,0.0,0.0,0.0,0.0,0.7287179827690125,-0.16871795058250427,9.706666946411133,0.0,0.0,0.0,0.0,0.0,0.0,0.0,0.0,0.0
1646351045.6749175,8266,1646351045,674589843,,0.0,0.0,0.0,0.0,0.0,0.0,0.0,0.0,0.0,0.0,0.0,0.0,0.0,-0.0012158364988863468,-0.01799245923757553,-0.005917098838835955,0.0,0.0,0.0,0.0,0.0,0.0,0.0,0.0,0.0,0.5958974361419678,0.14358974993228912,10.06384563446045,0.0,0.0,0.0,0.0,0.0,0.0,0.0,0.0,0.0
1646351045.6772,8267,1646351045,676774788,,0.0,0.0,0.0,0.0,0.0,0.0,0.0,0.0,0.0,0.0,0.0,0.0,0.0,-0.007607422769069672,-0.01799245923757553,-0.005917098838835955,0.0,0.0,0.0,0.0,0.0,0.0,0.0,0.0,0.0,0.28717949986457825,-0.21897436678409576,9.44820499420166,0.0,0.0,0.0,0.0,0.0,0.0,0.0,0.0,0.0
1646351045.6792233,8268,1646351045,678965521,,0.0,0.0,0.0,0.0,0.0,0.0,0.0,0.0,0.0,0.0,0.0,0.0,0.0,-0.008672687225043774,0.023552851751446724,0.000474488188046962,0.0,0.0,0.0,0.0,0.0,0.0,0.0,0.0,0.0,0.5097435712814331,0.2441025674343109,9.89871883392334,0.0,0.0,0.0,0.0,0.0,0.0,0.0,0.0,0.0
1646351045.6816616,8269,1646351045,681232366,,0.0,0.0,0.0,0.0,0.0,0.0,0.0,0.0,0.0,0.0,0.0,0.0,0.0,0.010502072051167488,0.009704413823783398,0.0047355457209050655,0.0,0.0,0.0,0.0,0.0,0.0,0.0,0.0,0.0,0.2943589687347412,-0.2764102518558502,9.523589134216309,0.0,0.0,0.0,0.0,0.0,0.0,0.0,0.0,0.0
1646351045.683863,8270,1646351045,683447376,,0.0,0.0,0.0,0.0,0.0,0.0,0.0,0.0,0.0,0.0,0.0,0.0,0.0,-0.002281100954860449,0.007573884446173906,0.000474488188046962,0.0,0.0,0.0,0.0,0.0,0.0,0.0,0.0,0.0,0.7017949223518372,0.1328205168247223,9.701282501220703,0.0,0.0,0.0,0.0,0.0,0.0,0.0,0.0,0.0
1646351045.68655,8271,1646351045,685671275,,0.0,0.0,0.0,0.0,0.0,0.0,0.0,0.0,0.0,0.0,0.0,0.0,0.0,-0.002281100954860449,0.02887917309999466,0.014322925359010696,0.0,0.0,0.0,0.0,0.0,0.0,0.0,0.0,0.0,0.823846161365509,-0.09692308306694031,9.573845863342285,0.0,0.0,0.0,0.0,0.0,0.0,0.0,0.0,0.0
1646351045.6883116,8272,1646351045,687891168,,0.0,0.0,0.0,0.0,0.0,0.0,0.0,0.0,0.0,0.0,0.0,0.0,0.0,-0.009737951681017876,0.010769677348434925,-0.0027213047724217176,0.0,0.0,0.0,0.0,0.0,0.0,0.0,0.0,0.0,0.5241025686264038,0.24589744210243225,9.629487037658691,0.0,0.0,0.0,0.0,0.0,0.0,0.0,0.0,0.0
1646351045.6905491,8273,1646351045,690124073,,0.0,0.0,0.0,0.0,0.0,0.0,0.0,0.0,0.0,0.0,0.0,0.0,0.0,0.014763129875063896,0.020357057452201843,-0.011243419721722603,0.0,0.0,0.0,0.0,0.0,0.0,0.0,0.0,0.0,0.6892307996749878,-0.24051281809806824,9.704872131347656,0.0,0.0,0.0,0.0,0.0,0.0,0.0,0.0,0.0
1646351045.6926308,8274,1646351045,692321294,,0.0,0.0,0.0,0.0,0.0,0.0,0.0,0.0,0.0,0.0,0.0,0.0,0.0,-0.023586388677358627,0.020357057452201843,0.017518719658255577,0.0,0.0,0.0,0.0,0.0,0.0,0.0,0.0,0.0,0.33743590116500854,-0.21897436678409576,9.432050704956055,0.0,0.0,0.0,0.0,0.0,0.0,0.0,0.0,0.0
1646351045.694948,8275,1646351045,694565120,,0.0,0.0,0.0,0.0,0.0,0.0,0.0,0.0,0.0,0.0,0.0,0.0,0.0,-0.018260065466165543,0.00224756239913404,-0.029352914541959763,0.0,0.0,0.0,0.0,0.0,0.0,0.0,0.0,0.0,0.5958974361419678,0.15794873237609863,9.965128898620605,0.0,0.0,0.0,0.0,0.0,0.0,0.0,0.0,0.0
1646351045.697197,8276,1646351045,696735369,,0.0,0.0,0.0,0.0,0.0,0.0,0.0,0.0,0.0,0.0,0.0,0.0,0.0,-0.005476894788444042,0.02461811527609825,0.014322925359010696,0.0,0.0,0.0,0.0,0.0,0.0,0.0,0.0,0.0,0.6856410503387451,-0.3069230914115906,9.55051326751709,0.0,0.0,0.0,0.0,0.0,0.0,0.0,0.0,0.0
1646351045.6994877,8277,1646351045,698938031,,0.0,0.0,0.0,0.0,0.0,0.0,0.0,0.0,0.0,0.0,0.0,0.0,0.0,-0.016129538416862488,0.015030735172331333,-0.014439214020967484,0.0,0.0,0.0,0.0,0.0,0.0,0.0,0.0,0.0,0.5276923179626465,0.15435898303985596,10.0853853225708,0.0,0.0,0.0,0.0,0.0,0.0,0.0,0.0,0.0
1646351045.7014499,8278,1646351045,701133068,,0.0,0.0,0.0,0.0,0.0,0.0,0.0,0.0,0.0,0.0,0.0,0.0,0.0,-0.012933745980262756,0.025683380663394928,0.01112713199108839,0.0,0.0,0.0,0.0,0.0,0.0,0.0,0.0,0.0,0.5384615659713745,-0.2889743745326996,9.423076629638672,0.0,0.0,0.0,0.0,0.0,0.0,0.0,0.0,0.0
1646351045.704369,8279,1646351045,703319590,,0.0,0.0,0.0,0.0,0.0,0.0,0.0,0.0,0.0,0.0,0.0,0.0,0.0,-0.02252112329006195,0.006508619990199804,0.0058008101768791676,0.0,0.0,0.0,0.0,0.0,0.0,0.0,0.0,0.0,0.44692307710647583,-0.14000000059604645,9.45718002319336,0.0,0.0,0.0,0.0,0.0,0.0,0.0,0.0,0.0
1646351045.705817,8280,1646351045,705508805,,0.0,0.0,0.0,0.0,0.0,0.0,0.0,0.0,0.0,0.0,0.0,0.0,0.0,-0.0012158364988863468,0.010769677348434925,-0.018700269982218742,0.0,0.0,0.0,0.0,0.0,0.0,0.0,0.0,0.0,0.5007692575454712,0.16333334147930145,9.89871883392334,0.0,0.0,0.0,0.0,0.0,0.0,0.0,0.0,0.0
1646351045.7081635,8281,1646351045,707701475,,0.0,0.0,0.0,0.0,0.0,0.0,0.0,0.0,0.0,0.0,0.0,0.0,0.0,-0.007607422769069672,0.001182297826744616,-0.015504478476941586,0.0,0.0,0.0,0.0,0.0,0.0,0.0,0.0,0.0,0.5887179374694824,-0.08076923340559006,9.593589782714844,0.0,0.0,0.0,0.0,0.0,0.0,0.0,0.0,0.0
1646351045.7103596,8282,1646351045,709953018,,0.0,0.0,0.0,0.0,0.0,0.0,0.0,0.0,0.0,0.0,0.0,0.0,0.0,-0.010803216136991978,0.012900206260383129,-0.0016560404328629375,0.0,0.0,0.0,0.0,0.0,0.0,0.0,0.0,0.0,0.48461538553237915,0.010769231244921684,9.85564136505127,0.0,0.0,0.0,0.0,0.0,0.0,0.0,0.0,0.0
1646351045.7124712,8283,1646351045,712110529,,0.0,0.0,0.0,0.0,0.0,0.0,0.0,0.0,0.0,0.0,0.0,0.0,0.0,0.001979956403374672,0.009704413823783398,-0.012308684177696705,0.0,0.0,0.0,0.0,0.0,0.0,0.0,0.0,0.0,0.5600000023841858,-0.2979487180709839,9.712051391601562,0.0,0.0,0.0,0.0,0.0,0.0,0.0,0.0,0.0
1646351045.7148602,8284,1646351045,714369079,,0.0,0.0,0.0,0.0,0.0,0.0,0.0,0.0,0.0,0.0,0.0,0.0,0.0,-0.03636956214904785,0.012900206260383129,-0.009112890809774399,0.0,0.0,0.0,0.0,0.0,0.0,0.0,0.0,0.0,0.4684615433216095,0.1561538577079773,10.024358749389648,0.0,0.0,0.0,0.0,0.0,0.0,0.0,0.0,0.0
1646351045.7169445,8285,1646351045,716555668,,0.0,0.0,0.0,0.0,0.0,0.0,0.0,0.0,0.0,0.0,0.0,0.0,0.0,0.01156733650714159,0.022487586364150047,-0.016569742932915688,0.0,0.0,0.0,0.0,0.0,0.0,0.0,0.0,0.0,0.5671795010566711,-0.3212820589542389,9.527179718017578,0.0,0.0,0.0,0.0,0.0,0.0,0.0,0.0,0.0
1646351045.7191212,8286,1646351045,718748346,,0.0,0.0,0.0,0.0,0.0,0.0,0.0,0.0,0.0,0.0,0.0,0.0,0.0,-0.009737951681017876,0.016095999628305435,-0.025091856718063354,0.0,0.0,0.0,0.0,0.0,0.0,0.0,0.0,0.0,0.5528205037117004,0.24948717653751373,10.045896530151367,0.0,0.0,0.0,0.0,0.0,0.0,0.0,0.0,0.0
1646351045.7213166,8287,1646351045,720931824,,0.0,0.0,0.0,0.0,0.0,0.0,0.0,0.0,0.0,0.0,0.0,0.0,0.0,-0.01932533085346222,0.052314989268779755,0.03136715292930603,0.0,0.0,0.0,0.0,0.0,0.0,0.0,0.0,0.0,0.5923076868057251,-0.15794873237609863,9.651025772094727,0.0,0.0,0.0,0.0,0.0,0.0,0.0,0.0,0.0
1646351045.7234566,8288,1646351045,723168884,,0.0,0.0,0.0,0.0,0.0,0.0,0.0,0.0,0.0,0.0,0.0,0.0,0.0,-0.00441163033246994,0.01822652854025364,-0.009112890809774399,0.0,0.0,0.0,0.0,0.0,0.0,0.0,0.0,0.0,0.5151281952857971,-0.17589744925498962,9.4858980178833,0.0,0.0,0.0,0.0,0.0,0.0,0.0,0.0,0.0
1646351045.7257926,8289,1646351045,725386463,,0.0,0.0,0.0,0.0,0.0,0.0,0.0,0.0,0.0,0.0,0.0,0.0,0.0,-0.020390594378113747,0.008639149367809296,-0.040005557239055634,0.0,0.0,0.0,0.0,0.0,0.0,0.0,0.0,0.0,0.5600000023841858,0.1471794843673706,10.013589859008789,0.0,0.0,0.0,0.0,0.0,0.0,0.0,0.0,0.0
1646351045.728029,8290,1646351045,727562067,,0.0,0.0,0.0,0.0,0.0,0.0,0.0,0.0,0.0,0.0,0.0,0.0,0.0,0.0030452206265181303,0.031009702011942863,0.000474488188046962,0.0,0.0,0.0,0.0,0.0,0.0,0.0,0.0,0.0,0.3769230842590332,-0.2710256576538086,9.514616012573242,0.0,0.0,0.0,0.0,0.0,0.0,0.0,0.0,0.0
1646351045.7300856,8291,1646351045,729754398,,0.0,0.0,0.0,0.0,0.0,0.0,0.0,0.0,0.0,0.0,0.0,0.0,0.0,-0.023586388677358627,0.0363360196352005,-0.0016560404328629375,0.0,0.0,0.0,0.0,0.0,0.0,0.0,0.0,0.0,0.4971795082092285,0.24230769276618958,9.932821273803711,0.0,0.0,0.0,0.0,0.0,0.0,0.0,0.0,0.0
1646351045.732225,8292,1646351045,731924653,,0.0,0.0,0.0,0.0,0.0,0.0,0.0,0.0,0.0,0.0,0.0,0.0,0.0,-0.008672687225043774,0.003312827320769429,-0.028287649154663086,0.0,0.0,0.0,0.0,0.0,0.0,0.0,0.0,0.0,0.4558974504470825,-0.2853846251964569,9.554102897644043,0.0,0.0,0.0,0.0,0.0,0.0,0.0,0.0,0.0
1646351045.7345495,8293,1646351045,734166008,,0.0,0.0,0.0,0.0,0.0,0.0,0.0,0.0,0.0,0.0,0.0,0.0,0.0,-0.009737951681017876,0.02461811527609825,-0.008047626353800297,0.0,0.0,0.0,0.0,0.0,0.0,0.0,0.0,0.0,0.6371794939041138,0.18128205835819244,9.701282501220703,0.0,0.0,0.0,0.0,0.0,0.0,0.0,0.0,0.0
1646351045.7367413,8294,1646351045,736404454,,0.0,0.0,0.0,0.0,0.0,0.0,0.0,0.0,0.0,0.0,0.0,0.0,0.0,-0.009737951681017876,0.020357057452201843,-0.0027213047724217176,0.0,0.0,0.0,0.0,0.0,0.0,0.0,0.0,0.0,0.7771795392036438,-0.03589743748307228,9.704872131347656,0.0,0.0,0.0,0.0,0.0,0.0,0.0,0.0,0.0
1646351045.7389932,8295,1646351045,738603822,,0.0,0.0,0.0,0.0,0.0,0.0,0.0,0.0,0.0,0.0,0.0,0.0,0.0,0.006241013761609793,0.009704413823783398,-0.035744503140449524,0.0,0.0,0.0,0.0,0.0,0.0,0.0,0.0,0.0,0.6641026139259338,0.1974359005689621,9.789230346679688,0.0,0.0,0.0,0.0,0.0,0.0,0.0,0.0,0.0
1646351045.7412052,8296,1646351045,740861888,,0.0,0.0,0.0,0.0,0.0,0.0,0.0,0.0,0.0,0.0,0.0,0.0,0.0,0.007306278217583895,0.022487586364150047,-0.035744503140449524,0.0,0.0,0.0,0.0,0.0,0.0,0.0,0.0,0.0,0.7933333516120911,-0.2028205245733261,9.638461112976074,0.0,0.0,0.0,0.0,0.0,0.0,0.0,0.0,0.0
1646351045.7434397,8297,1646351045,743075108,,0.0,0.0,0.0,0.0,0.0,0.0,0.0,0.0,0.0,0.0,0.0,0.0,0.0,0.015828393399715424,-0.003078758716583252,-0.016569742932915688,0.0,0.0,0.0,0.0,0.0,0.0,0.0,0.0,0.0,0.6515384912490845,0.17769230902194977,9.990256309509277,0.0,0.0,0.0,0.0,0.0,0.0,0.0,0.0,0.0
1646351045.747527,8298,1646351045,745285779,,0.0,0.0,0.0,0.0,0.0,0.0,0.0,0.0,0.0,0.0,0.0,0.0,0.0,0.014763129875063896,0.026748644188046455,-0.0101781552657485,0.0,0.0,0.0,0.0,0.0,0.0,0.0,0.0,0.0,0.5276923179626465,0.29615384340286255,9.9399995803833,0.0,0.0,0.0,0.0,0.0,0.0,0.0,0.0,0.0
1646351045.7479155,8299,1646351045,747567831,,0.0,0.0,0.0,0.0,0.0,0.0,0.0,0.0,0.0,0.0,0.0,0.0,0.0,-0.018260065466165543,0.013965470716357231,0.014322925359010696,0.0,0.0,0.0,0.0,0.0,0.0,0.0,0.0,0.0,0.41102564334869385,-0.24051281809806824,9.520000457763672,0.0,0.0,0.0,0.0,0.0,0.0,0.0,0.0,0.0
1646351045.7500198,8300,1646351045,749773588,,0.0,0.0,0.0,0.0,0.0,0.0,0.0,0.0,0.0,0.0,0.0,0.0,0.0,0.013697865419089794,0.009704413823783398,-0.03254871070384979,0.0,0.0,0.0,0.0,0.0,0.0,0.0,0.0,0.0,0.5905128121376038,0.1561538577079773,10.10692310333252,0.0,0.0,0.0,0.0,0.0,0.0,0.0,0.0,0.0
1646351045.752289,8301,1646351045,751960046,,0.0,0.0,0.0,0.0,0.0,0.0,0.0,0.0,0.0,0.0,0.0,0.0,0.0,0.009436807595193386,0.026748644188046455,0.0015397525858134031,0.0,0.0,0.0,0.0,0.0,0.0,0.0,0.0,0.0,0.3410256505012512,-0.07897436618804932,9.59538459777832,0.0,0.0,0.0,0.0,0.0,0.0,0.0,0.0,0.0
1646351045.7545943,8302,1646351045,754192799,,0.0,0.0,0.0,0.0,0.0,0.0,0.0,0.0,0.0,0.0,0.0,0.0,0.0,0.005175749771296978,0.01822652854025364,-0.02296132780611515,0.0,0.0,0.0,0.0,0.0,0.0,0.0,0.0,0.0,0.49000000953674316,0.22256410121917725,10.128461837768555,0.0,0.0,0.0,0.0,0.0,0.0,0.0,0.0,0.0
1646351045.756721,8303,1646351045,756413130,,0.0,0.0,0.0,0.0,0.0,0.0,0.0,0.0,0.0,0.0,0.0,0.0,0.0,0.02008945122361183,0.035270754247903824,-0.03254871070384979,0.0,0.0,0.0,0.0,0.0,0.0,0.0,0.0,0.0,0.49897435307502747,0.08794872462749481,10.087179183959961,0.0,0.0,0.0,0.0,0.0,0.0,0.0,0.0,0.0
1646351045.7590334,8304,1646351045,758654515,,0.0,0.0,0.0,0.0,0.0,0.0,0.0,0.0,0.0,0.0,0.0,0.0,0.0,-0.00654215831309557,0.019291793927550316,-0.020830798894166946,0.0,0.0,0.0,0.0,0.0,0.0,0.0,0.0,0.0,0.7179487347602844,-0.032307691872119904,9.719230651855469,0.0,0.0,0.0,0.0,0.0,0.0,0.0,0.0,0.0
1646351045.7612677,8305,1646351045,760940236,,0.0,0.0,0.0,0.0,0.0,0.0,0.0,0.0,0.0,0.0,0.0,0.0,0.0,-0.009737951681017876,0.00544335599988699,-0.05278873071074486,0.0,0.0,0.0,0.0,0.0,0.0,0.0,0.0,0.0,0.5043590068817139,0.08615384995937347,9.878974914550781,0.0,0.0,0.0,0.0,0.0,0.0,0.0,0.0,0.0
1646351045.763541,8306,1646351045,763169012,,0.0,0.0,0.0,0.0,0.0,0.0,0.0,0.0,0.0,0.0,0.0,0.0,0.0,-0.002281100954860449,0.019291793927550316,0.018583983182907104,0.0,0.0,0.0,0.0,0.0,0.0,0.0,0.0,0.0,0.6317949295043945,-0.1705128252506256,9.679743766784668,0.0,0.0,0.0,0.0,0.0,0.0,0.0,0.0,0.0
1646351045.7657685,8307,1646351045,765381281,,0.0,0.0,0.0,0.0,0.0,0.0,0.0,0.0,0.0,0.0,0.0,0.0,0.0,-0.021455859765410423,0.04059707745909691,-0.031483445316553116,0.0,0.0,0.0,0.0,0.0,0.0,0.0,0.0,0.0,0.5312820672988892,0.1974359005689621,10.04769229888916,0.0,0.0,0.0,0.0,0.0,0.0,0.0,0.0,0.0
1646351045.7678595,8308,1646351045,767564619,,0.0,0.0,0.0,0.0,0.0,0.0,0.0,0.0,0.0,0.0,0.0,0.0,0.0,0.004110485315322876,0.038466550409793854,-0.011243419721722603,0.0,0.0,0.0,0.0,0.0,0.0,0.0,0.0,0.0,0.4720512926578522,-0.26923078298568726,9.59538459777832,0.0,0.0,0.0,0.0,0.0,0.0,0.0,0.0,0.0
1646351045.7703161,8309,1646351045,769769746,,0.0,0.0,0.0,0.0,0.0,0.0,0.0,0.0,0.0,0.0,0.0,0.0,0.0,0.0030452206265181303,0.041662342846393585,-0.035744503140449524,0.0,0.0,0.0,0.0,0.0,0.0,0.0,0.0,0.0,0.5797435641288757,0.28717949986457825,9.948974609375,0.0,0.0,0.0,0.0,0.0,0.0,0.0,0.0,0.0
1646351045.7724109,8310,1646351045,772007250,,0.0,0.0,0.0,0.0,0.0,0.0,0.0,0.0,0.0,0.0,0.0,0.0,0.0,-0.017194801941514015,0.04592340067028999,0.0026050168089568615,0.0,0.0,0.0,0.0,0.0,0.0,0.0,0.0,0.0,0.38410258293151855,-0.05743589997291565,9.536153793334961,0.0,0.0,0.0,0.0,0.0,0.0,0.0,0.0,0.0
1646351045.7746565,8311,1646351045,774259242,,0.0,0.0,0.0,0.0,0.0,0.0,0.0,0.0,0.0,0.0,0.0,0.0,0.0,-0.005476894788444042,0.035270754247903824,-0.028287649154663086,0.0,0.0,0.0,0.0,0.0,0.0,0.0,0.0,0.0,0.7412821054458618,-0.023333333432674408,9.514616012573242,0.0,0.0,0.0,0.0,0.0,0.0,0.0,0.0,0.0
1646351045.7768471,8312,1646351045,776474438,,0.0,0.0,0.0,0.0,0.0,0.0,0.0,0.0,0.0,0.0,0.0,0.0,0.0,0.006241013761609793,0.06190236657857895,-0.03361397236585617,0.0,0.0,0.0,0.0,0.0,0.0,0.0,0.0,0.0,0.6210256814956665,0.16333334147930145,9.674358367919922,0.0,0.0,0.0,0.0,0.0,0.0,0.0,0.0,0.0
1646351045.779095,8313,1646351045,778698379,,0.0,0.0,0.0,0.0,0.0,0.0,0.0,0.0,0.0,0.0,0.0,0.0,0.0,-0.00441163033246994,0.0736202746629715,-0.026157120242714882,0.0,0.0,0.0,0.0,0.0,0.0,0.0,0.0,0.0,0.33384618163108826,-0.1794871836900711,9.505640983581543,0.0,0.0,0.0,0.0,0.0,0.0,0.0,0.0,0.0
1646351045.7812948,8314,1646351045,780917417,,0.0,0.0,0.0,0.0,0.0,0.0,0.0,0.0,0.0,0.0,0.0,0.0,0.0,0.0030452206265181303,0.051249727606773376,-0.024026591330766678,0.0,0.0,0.0,0.0,0.0,0.0,0.0,0.0,0.0,0.44871795177459717,0.20461538434028625,9.724615097045898,0.0,0.0,0.0,0.0,0.0,0.0,0.0,0.0,0.0
1646351045.7833378,8315,1646351045,783113839,,0.0,0.0,0.0,0.0,0.0,0.0,0.0,0.0,0.0,0.0,0.0,0.0,0.0,-0.017194801941514015,0.06296762824058533,-0.015504478476941586,0.0,0.0,0.0,0.0,0.0,0.0,0.0,0.0,0.0,0.4684615433216095,-0.06461538374423981,9.385384559631348,0.0,0.0,0.0,0.0,0.0,0.0,0.0,0.0,0.0
1646351045.7857096,8316,1646351045,785351969,,0.0,0.0,0.0,0.0,0.0,0.0,0.0,0.0,0.0,0.0,0.0,0.0,0.0,-0.008672687225043774,0.07148974388837814,-0.04426661506295204,0.0,0.0,0.0,0.0,0.0,0.0,0.0,0.0,0.0,0.8417949080467224,0.2853846251964569,9.69948673248291,0.0,0.0,0.0,0.0,0.0,0.0,0.0,0.0,0.0
1646351045.7892249,8317,1646351045,787603724,,0.0,0.0,0.0,0.0,0.0,0.0,0.0,0.0,0.0,0.0,0.0,0.0,0.0,-0.01186848059296608,0.0874687135219574,-0.025091856718063354,0.0,0.0,0.0,0.0,0.0,0.0,0.0,0.0,0.0,0.9405128359794617,0.014358974993228912,9.625897407531738,0.0,0.0,0.0,0.0,0.0,0.0,0.0,0.0,0.0
1646351045.7902584,8318,1646351045,789816502,,0.0,0.0,0.0,0.0,0.0,0.0,0.0,0.0,0.0,0.0,0.0,0.0,0.0,-0.023586388677358627,0.07575080543756485,-0.02722238563001156,0.0,0.0,0.0,0.0,0.0,0.0,0.0,0.0,0.0,0.6425641179084778,0.4594871997833252,9.843076705932617,0.0,0.0,0.0,0.0,0.0,0.0,0.0,0.0,0.0
1646351045.7923944,8319,1646351045,792047028,,0.0,0.0,0.0,0.0,0.0,0.0,0.0,0.0,0.0,0.0,0.0,0.0,0.0,-0.02252112329006195,0.0736202746629715,-0.0368097685277462,0.0,0.0,0.0,0.0,0.0,0.0,0.0,0.0,0.0,0.931538462638855,-0.09692308306694031,9.656410217285156,0.0,0.0,0.0,0.0,0.0,0.0,0.0,0.0,0.0
1646351045.7945578,8320,1646351045,794288580,,0.0,0.0,0.0,0.0,0.0,0.0,0.0,0.0,0.0,0.0,0.0,0.0,0.0,-0.018260065466165543,0.07468553632497787,-0.013373949564993382,0.0,0.0,0.0,0.0,0.0,0.0,0.0,0.0,0.0,0.44871795177459717,-0.05205128341913223,9.528974533081055,0.0,0.0,0.0,0.0,0.0,0.0,0.0,0.0,0.0
1646351045.7967162,8321,1646351045,796465800,,0.0,0.0,0.0,0.0,0.0,0.0,0.0,0.0,0.0,0.0,0.0,0.0,0.0,-0.02997797727584839,0.08640345185995102,-0.05598452314734459,0.0,0.0,0.0,0.0,0.0,0.0,0.0,0.0,0.0,0.7071795463562012,0.26923078298568726,9.93820571899414,0.0,0.0,0.0,0.0,0.0,0.0,0.0,0.0,0.0
1646351045.798921,8322,1646351045,798685004,,0.0,0.0,0.0,0.0,0.0,0.0,0.0,0.0,0.0,0.0,0.0,0.0,0.0,-0.04702220484614372,0.06829395145177841,-0.028287649154663086,0.0,0.0,0.0,0.0,0.0,0.0,0.0,0.0,0.0,0.6192308068275452,-0.028717949986457825,9.631281852722168,0.0,0.0,0.0,0.0,0.0,0.0,0.0,0.0,0.0
1646351045.8012724,8323,1646351045,800885718,,0.0,0.0,0.0,0.0,0.0,0.0,0.0,0.0,0.0,0.0,0.0,0.0,0.0,-0.03317376971244812,0.09492556750774384,-0.04213608428835869,0.0,0.0,0.0,0.0,0.0,0.0,0.0,0.0,0.0,0.4953846335411072,0.3805128335952759,9.986666679382324,0.0,0.0,0.0,0.0,0.0,0.0,0.0,0.0,0.0
1646351045.8034985,8324,1646351045,803078602,,0.0,0.0,0.0,0.0,0.0,0.0,0.0,0.0,0.0,0.0,0.0,0.0,0.0,-0.027847446501255035,0.09279503673315048,-0.02722238563001156,0.0,0.0,0.0,0.0,0.0,0.0,0.0,0.0,0.0,0.4882051348686218,-0.03948718309402466,9.625897407531738,0.0,0.0,0.0,0.0,0.0,0.0,0.0,0.0,0.0
1646351045.8056774,8325,1646351045,805297383,,0.0,0.0,0.0,0.0,0.0,0.0,0.0,0.0,0.0,0.0,0.0,0.0,0.0,-0.032108504325151443,0.09279503673315048,-0.05278873071074486,0.0,0.0,0.0,0.0,0.0,0.0,0.0,0.0,0.0,0.6479487419128418,0.4056410491466522,9.931025505065918,0.0,0.0,0.0,0.0,0.0,0.0,0.0,0.0,0.0
1646351045.8078763,8326,1646351045,807523681,,0.0,0.0,0.0,0.0,0.0,0.0,0.0,0.0,0.0,0.0,0.0,0.0,0.0,-0.01932533085346222,0.05870657414197922,-0.058115050196647644,0.0,0.0,0.0,0.0,0.0,0.0,0.0,0.0,0.0,0.6120513081550598,0.40743592381477356,9.837692260742188,0.0,0.0,0.0,0.0,0.0,0.0,0.0,0.0,0.0
1646351045.810211,8327,1646351045,809803510,,0.0,0.0,0.0,0.0,0.0,0.0,0.0,0.0,0.0,0.0,0.0,0.0,0.0,-0.008672687225043774,0.08640345185995102,-0.05598452314734459,0.0,0.0,0.0,0.0,0.0,0.0,0.0,0.0,0.0,0.6856410503387451,0.36974361538887024,9.685128211975098,0.0,0.0,0.0,0.0,0.0,0.0,0.0,0.0,0.0
1646351045.8122268,8328,1646351045,811995463,,0.0,0.0,0.0,0.0,0.0,0.0,0.0,0.0,0.0,0.0,0.0,0.0,0.0,-0.013999010436236858,0.07681606709957123,-0.035744503140449524,0.0,0.0,0.0,0.0,0.0,0.0,0.0,0.0,0.0,0.6461538672447205,0.3212820589542389,9.744359016418457,0.0,0.0,0.0,0.0,0.0,0.0,0.0,0.0,0.0
1646351045.8146737,8329,1646351045,814209357,,0.0,0.0,0.0,0.0,0.0,0.0,0.0,0.0,0.0,0.0,0.0,0.0,0.0,-0.016129538416862488,0.07255501300096512,-0.028287649154663086,0.0,0.0,0.0,0.0,0.0,0.0,0.0,0.0,0.0,0.5384615659713745,0.03410256281495094,9.625897407531738,0.0,0.0,0.0,0.0,0.0,0.0,0.0,0.0,0.0
1646351045.8167534,8330,1646351045,816429912,,0.0,0.0,0.0,0.0,0.0,0.0,0.0,0.0,0.0,0.0,0.0,0.0,0.0,-0.0342390350997448,0.08959924429655075,-0.038940295577049255,0.0,0.0,0.0,0.0,0.0,0.0,0.0,0.0,0.0,0.5869230628013611,0.48461538553237915,9.91128158569336,0.0,0.0,0.0,0.0,0.0,0.0,0.0,0.0,0.0
1646351045.8190727,8331,1646351045,818678180,,0.0,0.0,0.0,0.0,0.0,0.0,0.0,0.0,0.0,0.0,0.0,0.0,0.0,-0.01506427489221096,0.09279503673315048,-0.031483445316553116,0.0,0.0,0.0,0.0,0.0,0.0,0.0,0.0,0.0,0.5241025686264038,0.14000000059604645,9.61153793334961,0.0,0.0,0.0,0.0,0.0,0.0,0.0,0.0,0.0
1646351045.8213465,8332,1646351045,820939508,,0.0,0.0,0.0,0.0,0.0,0.0,0.0,0.0,0.0,0.0,0.0,0.0,0.0,-0.012933745980262756,0.10025188326835632,-0.03787503018975258,0.0,0.0,0.0,0.0,0.0,0.0,0.0,0.0,0.0,0.6676923632621765,0.34282052516937256,9.719230651855469,0.0,0.0,0.0,0.0,0.0,0.0,0.0,0.0,0.0
1646351045.8235345,8333,1646351045,823132214,,0.0,0.0,0.0,0.0,0.0,0.0,0.0,0.0,0.0,0.0,0.0,0.0,0.0,-0.0342390350997448,0.11623085290193558,-0.017635004594922066,0.0,0.0,0.0,0.0,0.0,0.0,0.0,0.0,0.0,0.4810256361961365,0.046666666865348816,9.390769004821777,0.0,0.0,0.0,0.0,0.0,0.0,0.0,0.0,0.0
1646351045.8257582,8334,1646351045,825335923,,0.0,0.0,0.0,0.0,0.0,0.0,0.0,0.0,0.0,0.0,0.0,0.0,0.0,-0.01186848059296608,0.08533818274736404,-0.03041817992925644,0.0,0.0,0.0,0.0,0.0,0.0,0.0,0.0,0.0,0.6641026139259338,0.1328205168247223,9.520000457763672,0.0,0.0,0.0,0.0,0.0,0.0,0.0,0.0,0.0
1646351045.827767,8335,1646351045,827515371,,0.0,0.0,0.0,0.0,0.0,0.0,0.0,0.0,0.0,0.0,0.0,0.0,0.0,-0.009737951681017876,0.08001185953617096,-0.043201349675655365,0.0,0.0,0.0,0.0,0.0,0.0,0.0,0.0,0.0,0.5187179446220398,0.1058974415063858,9.604358673095703,0.0,0.0,0.0,0.0,0.0,0.0,0.0,0.0,0.0
1646351045.8310282,8336,1646351045,829698044,,0.0,0.0,0.0,0.0,0.0,0.0,0.0,0.0,0.0,0.0,0.0,0.0,0.0,-0.023586388677358627,0.12155717611312866,-0.025091856718063354,0.0,0.0,0.0,0.0,0.0,0.0,0.0,0.0,0.0,0.6766666769981384,0.1974359005689621,9.75333309173584,0.0,0.0,0.0,0.0,0.0,0.0,0.0,0.0,0.0
1646351045.8322136,8337,1646351045,831916221,,0.0,0.0,0.0,0.0,0.0,0.0,0.0,0.0,0.0,0.0,0.0,0.0,0.0,0.017958922311663628,0.10451294481754303,-0.029352914541959763,0.0,0.0,0.0,0.0,0.0,0.0,0.0,0.0,0.0,0.6120513081550598,0.2979487180709839,9.832307815551758,0.0,0.0,0.0,0.0,0.0,0.0,0.0,0.0,0.0
1646351045.834459,8338,1646351045,834109901,,0.0,0.0,0.0,0.0,0.0,0.0,0.0,0.0,0.0,0.0,0.0,0.0,0.0,0.014763129875063896,0.1247529685497284,-0.020830798894166946,0.0,0.0,0.0,0.0,0.0,0.0,0.0,0.0,0.0,0.5958974361419678,-0.23692308366298676,9.622307777404785,0.0,0.0,0.0,0.0,0.0,0.0,0.0,0.0,0.0
1646351045.8366208,8339,1646351045,836292437,,0.0,0.0,0.0,0.0,0.0,0.0,0.0,0.0,0.0,0.0,0.0,0.0,0.0,-0.013999010436236858,0.12049190700054169,-0.013373949564993382,0.0,0.0,0.0,0.0,0.0,0.0,0.0,0.0,0.0,0.6479487419128418,0.26923078298568726,9.873589515686035,0.0,0.0,0.0,0.0,0.0,0.0,0.0,0.0,0.0
1646351045.8389242,8340,1646351045,838480187,,0.0,0.0,0.0,0.0,0.0,0.0,0.0,0.0,0.0,0.0,0.0,0.0,0.0,0.0030452206265181303,0.12262243777513504,-0.017635004594922066,0.0,0.0,0.0,0.0,0.0,0.0,0.0,0.0,0.0,0.8525640964508057,-0.12564103305339813,9.55589771270752,0.0,0.0,0.0,0.0,0.0,0.0,0.0,0.0,0.0
1646351045.8409743,8341,1646351045,840644936,,0.0,0.0,0.0,0.0,0.0,0.0,0.0,0.0,0.0,0.0,0.0,0.0,0.0,-0.021455859765410423,0.12688349187374115,-0.035744503140449524,0.0,0.0,0.0,0.0,0.0,0.0,0.0,0.0,0.0,0.5474358797073364,0.2566666603088379,9.9005126953125,0.0,0.0,0.0,0.0,0.0,0.0,0.0,0.0,0.0
1646351045.843279,8342,1646351045,842877987,,0.0,0.0,0.0,0.0,0.0,0.0,0.0,0.0,0.0,0.0,0.0,0.0,0.0,-0.01186848059296608,0.1290140300989151,-0.017635004594922066,0.0,0.0,0.0,0.0,0.0,0.0,0.0,0.0,0.0,0.6892307996749878,-0.2710256576538086,9.564871788024902,0.0,0.0,0.0,0.0,0.0,0.0,0.0,0.0,0.0
1646351045.8455133,8343,1646351045,845132786,,0.0,0.0,0.0,0.0,0.0,0.0,0.0,0.0,0.0,0.0,0.0,0.0,0.0,-0.003346365410834551,0.12688349187374115,-0.013373949564993382,0.0,0.0,0.0,0.0,0.0,0.0,0.0,0.0,0.0,0.7143589854240417,0.2800000011920929,10.311538696289062,0.0,0.0,0.0,0.0,0.0,0.0,0.0,0.0,0.0
1646351045.8478115,8344,1646351045,847370819,,0.0,0.0,0.0,0.0,0.0,0.0,0.0,0.0,0.0,0.0,0.0,0.0,0.0,-0.0342390350997448,0.1247529685497284,-0.05918031558394432,0.0,0.0,0.0,0.0,0.0,0.0,0.0,0.0,0.0,0.40743592381477356,0.23692308366298676,9.406923294067383,0.0,0.0,0.0,0.0,0.0,0.0,0.0,0.0,0.0
1646351045.850053,8345,1646351045,849595372,,0.0,0.0,0.0,0.0,0.0,0.0,0.0,0.0,0.0,0.0,0.0,0.0,0.0,-0.02678218111395836,0.11303506046533585,-0.014439214020967484,0.0,0.0,0.0,0.0,0.0,0.0,0.0,0.0,0.0,0.818461537361145,-0.19384616613388062,10.84999942779541,0.0,0.0,0.0,0.0,0.0,0.0,0.0,0.0,0.0
1646351045.8521423,8346,1646351045,851818451,,0.0,0.0,0.0,0.0,0.0,0.0,0.0,0.0,0.0,0.0,0.0,0.0,0.0,-0.045956939458847046,0.13647088408470154,-0.028287649154663086,0.0,0.0,0.0,0.0,0.0,0.0,0.0,0.0,0.0,0.5151281952857971,0.3410256505012512,9.765897750854492,0.0,0.0,0.0,0.0,0.0,0.0,0.0,0.0,0.0
1646351045.8543332,8347,1646351045,854040852,,0.0,0.0,0.0,0.0,0.0,0.0,0.0,0.0,0.0,0.0,0.0,0.0,0.0,-0.05660958215594292,0.1481887847185135,-0.013373949564993382,0.0,0.0,0.0,0.0,0.0,0.0,0.0,0.0,0.0,0.49358975887298584,-0.17769230902194977,9.415897369384766,0.0,0.0,0.0,0.0,0.0,0.0,0.0,0.0,0.0
1646351045.8566637,8348,1646351045,856245059,,0.0,0.0,0.0,0.0,0.0,0.0,0.0,0.0,0.0,0.0,0.0,0.0,0.0,-0.07791487127542496,0.14392772316932678,0.008996603079140186,0.0,0.0,0.0,0.0,0.0,0.0,0.0,0.0,0.0,0.49000000953674316,0.4882051348686218,10.291794776916504,0.0,0.0,0.0,0.0,0.0,0.0,0.0,0.0,0.0
1646351045.8589537,8349,1646351045,858506965,,0.0,0.0,0.0,0.0,0.0,0.0,0.0,0.0,0.0,0.0,0.0,0.0,0.0,-0.08217593282461166,0.15351511538028717,-0.0027213047724217176,0.0,0.0,0.0,0.0,0.0,0.0,0.0,0.0,0.0,0.6641026139259338,-0.01794871874153614,9.728204727172852,0.0,0.0,0.0,0.0,0.0,0.0,0.0,0.0,0.0
1646351045.8611228,8350,1646351045,860699931,,0.0,0.0,0.0,0.0,0.0,0.0,0.0,0.0,0.0,0.0,0.0,0.0,0.0,-0.05447905510663986,0.16097195446491241,-0.024026591330766678,0.0,0.0,0.0,0.0,0.0,0.0,0.0,0.0,0.0,0.49897435307502747,0.13641025125980377,9.701282501220703,0.0,0.0,0.0,0.0,0.0,0.0,0.0,0.0,0.0
1646351045.8632967,8351,1646351045,862950321,,0.0,0.0,0.0,0.0,0.0,0.0,0.0,0.0,0.0,0.0,0.0,0.0,0.0,-0.07045802474021912,0.17162460088729858,-0.0037865692283958197,0.0,0.0,0.0,0.0,0.0,0.0,0.0,0.0,0.0,0.7969231009483337,0.2656410336494446,9.828718185424805,0.0,0.0,0.0,0.0,0.0,0.0,0.0,0.0,0.0
1646351045.8655694,8352,1646351045,865164657,,0.0,0.0,0.0,0.0,0.0,0.0,0.0,0.0,0.0,0.0,0.0,0.0,0.0,-0.0480874665081501,0.18547303974628448,0.0036702812649309635,0.0,0.0,0.0,0.0,0.0,0.0,0.0,0.0,0.0,0.4307692348957062,0.5402564406394958,9.579231262207031,0.0,0.0,0.0,0.0,0.0,0.0,0.0,0.0,0.0
1646351045.8678384,8353,1646351045,867378334,,0.0,0.0,0.0,0.0,0.0,0.0,0.0,0.0,0.0,0.0,0.0,0.0,0.0,-0.060870639979839325,0.20145198702812195,0.014322925359010696,0.0,0.0,0.0,0.0,0.0,0.0,0.0,0.0,0.0,0.4882051348686218,0.3176923394203186,9.74256420135498,0.0,0.0,0.0,0.0,0.0,0.0,0.0,0.0,0.0
1646351045.8699586,8354,1646351045,869572612,,0.0,0.0,0.0,0.0,0.0,0.0,0.0,0.0,0.0,0.0,0.0,0.0,0.0,-0.03636956214904785,0.2174309641122818,0.008996603079140186,0.0,0.0,0.0,0.0,0.0,0.0,0.0,0.0,0.0,0.3266666829586029,-0.13641025125980377,9.572051048278809,0.0,0.0,0.0,0.0,0.0,0.0,0.0,0.0,0.0
1646351045.872712,8355,1646351045,871770557,,0.0,0.0,0.0,0.0,0.0,0.0,0.0,0.0,0.0,0.0,0.0,0.0,0.0,-0.042761147022247314,0.20251725614070892,0.013257660903036594,0.0,0.0,0.0,0.0,0.0,0.0,0.0,0.0,0.0,0.4953846335411072,0.16153846681118011,9.891538619995117,0.0,0.0,0.0,0.0,0.0,0.0,0.0,0.0,0.0
1646351045.874502,8356,1646351045,873972323,,0.0,0.0,0.0,0.0,0.0,0.0,0.0,0.0,0.0,0.0,0.0,0.0,0.0,-0.007607422769069672,0.20677831768989563,0.0058008101768791676,0.0,0.0,0.0,0.0,0.0,0.0,0.0,0.0,0.0,0.38948720693588257,-0.15256410837173462,9.15923023223877,0.0,0.0,0.0,0.0,0.0,0.0,0.0,0.0,0.0
1646351045.876621,8357,1646351045,876210383,,0.0,0.0,0.0,0.0,0.0,0.0,0.0,0.0,0.0,0.0,0.0,0.0,0.0,0.01156733650714159,0.2035825252532959,0.010061867535114288,0.0,0.0,0.0,0.0,0.0,0.0,0.0,0.0,0.0,0.7394872307777405,0.12923076748847961,9.498461723327637,0.0,0.0,0.0,0.0,0.0,0.0,0.0,0.0,0.0
1646351045.8787267,8358,1646351045,878422972,,0.0,0.0,0.0,0.0,0.0,0.0,0.0,0.0,0.0,0.0,0.0,0.0,0.0,0.007306278217583895,0.24619309604167938,-0.0005907765007577837,0.0,0.0,0.0,0.0,0.0,0.0,0.0,0.0,0.0,0.6658974885940552,-0.13641025125980377,9.54153823852539,0.0,0.0,0.0,0.0,0.0,0.0,0.0,0.0,0.0
1646351045.8809037,8359,1646351045,880620840,,0.0,0.0,0.0,0.0,0.0,0.0,0.0,0.0,0.0,0.0,0.0,0.0,0.0,0.012632600963115692,0.23980151116847992,0.022845041006803513,0.0,0.0,0.0,0.0,0.0,0.0,0.0,0.0,0.0,0.5187179446220398,0.1148717999458313,9.482307434082031,0.0,0.0,0.0,0.0,0.0,0.0,0.0,0.0,0.0
1646351045.8831613,8360,1646351045,882842564,,0.0,0.0,0.0,0.0,0.0,0.0,0.0,0.0,0.0,0.0,0.0,0.0,0.0,0.014763129875063896,0.22914886474609375,-0.005917098838835955,0.0,0.0,0.0,0.0,0.0,0.0,0.0,0.0,0.0,0.5294871926307678,0.33743590116500854,9.701282501220703,0.0,0.0,0.0,0.0,0.0,0.0,0.0,0.0,0.0
1646351045.8854215,8361,1646351045,885069644,,0.0,0.0,0.0,0.0,0.0,0.0,0.0,0.0,0.0,0.0,0.0,0.0,0.0,0.026481037959456444,0.22914886474609375,0.012192396447062492,0.0,0.0,0.0,0.0,0.0,0.0,0.0,0.0,0.0,0.13641025125980377,-0.48461538553237915,9.634871482849121,0.0,0.0,0.0,0.0,0.0,0.0,0.0,0.0,0.0
1646351045.8876915,8362,1646351045,887307575,,0.0,0.0,0.0,0.0,0.0,0.0,0.0,0.0,0.0,0.0,0.0,0.0,0.0,0.015828393399715424,0.2813468277454376,-0.025091856718063354,0.0,0.0,0.0,0.0,0.0,0.0,0.0,0.0,0.0,0.49897435307502747,-0.19025641679763794,9.783845901489258,0.0,0.0,0.0,0.0,0.0,0.0,0.0,0.0,0.0
1646351045.8899982,8363,1646351045,889575473,,0.0,0.0,0.0,0.0,0.0,0.0,0.0,0.0,0.0,0.0,0.0,0.0,0.0,0.02008945122361183,0.25151941180229187,0.021779777482151985,0.0,0.0,0.0,0.0,0.0,0.0,0.0,0.0,0.0,0.02153846248984337,-0.09153846651315689,9.656410217285156,0.0,0.0,0.0,0.0,0.0,0.0,0.0,0.0,0.0
1646351045.8922424,8364,1646351045,891746538,,0.0,0.0,0.0,0.0,0.0,0.0,0.0,0.0,0.0,0.0,0.0,0.0,0.0,-0.016129538416862488,0.28986895084381104,-0.005917098838835955,0.0,0.0,0.0,0.0,0.0,0.0,0.0,0.0,0.0,0.7089743614196777,-0.08076923340559006,9.69948673248291,0.0,0.0,0.0,0.0,0.0,0.0,0.0,0.0,0.0
1646351045.8943663,8365,1646351045,893931345,,0.0,0.0,0.0,0.0,0.0,0.0,0.0,0.0,0.0,0.0,0.0,0.0,0.0,-0.003346365410834551,0.2834773659706116,-0.008047626353800297,0.0,0.0,0.0,0.0,0.0,0.0,0.0,0.0,0.0,0.6246154308319092,0.005384615622460842,10.135641098022461,0.0,0.0,0.0,0.0,0.0,0.0,0.0,0.0,0.0
1646351045.8964622,8366,1646351045,896112115,,0.0,0.0,0.0,0.0,0.0,0.0,0.0,0.0,0.0,0.0,0.0,0.0,0.0,-0.023586388677358627,0.2834773659706116,-0.0101781552657485,0.0,0.0,0.0,0.0,0.0,0.0,0.0,0.0,0.0,0.4864102602005005,-0.41641026735305786,9.981282234191895,0.0,0.0,0.0,0.0,0.0,0.0,0.0,0.0,0.0
1646351045.8986163,8367,1646351045,898317652,,0.0,0.0,0.0,0.0,0.0,0.0,0.0,0.0,0.0,0.0,0.0,0.0,0.0,-0.0342390350997448,0.3228921592235565,-0.021896062418818474,0.0,0.0,0.0,0.0,0.0,0.0,0.0,0.0,0.0,0.7448717951774597,0.22435897588729858,9.90589714050293,0.0,0.0,0.0,0.0,0.0,0.0,0.0,0.0,0.0
1646351045.9008505,8368,1646351045,900563180,,0.0,0.0,0.0,0.0,0.0,0.0,0.0,0.0,0.0,0.0,0.0,0.0,0.0,-0.05660958215594292,0.3143700659275055,0.021779777482151985,0.0,0.0,0.0,0.0,0.0,0.0,0.0,0.0,0.0,0.6551282405853271,-0.1148717999458313,9.783845901489258,0.0,0.0,0.0,0.0,0.0,0.0,0.0,0.0,0.0
1646351045.9031978,8369,1646351045,902789055,,0.0,0.0,0.0,0.0,0.0,0.0,0.0,0.0,0.0,0.0,0.0,0.0,0.0,-0.0757843405008316,0.3175658583641052,-0.005917098838835955,0.0,0.0,0.0,0.0,0.0,0.0,0.0,0.0,0.0,0.47564104199409485,0.1058974415063858,9.966922760009766,0.0,0.0,0.0,0.0,0.0,0.0,0.0,0.0,0.0
1646351045.906382,8370,1646351045,905077371,,0.0,0.0,0.0,0.0,0.0,0.0,0.0,0.0,0.0,0.0,0.0,0.0,0.0,-0.06513170152902603,0.33141428232192993,0.0015397525858134031,0.0,0.0,0.0,0.0,0.0,0.0,0.0,0.0,0.0,0.7771795392036438,-0.23333333432674408,9.55051326751709,0.0,0.0,0.0,0.0,0.0,0.0,0.0,0.0,0.0
1646351045.907639,8371,1646351045,907284171,,0.0,0.0,0.0,0.0,0.0,0.0,0.0,0.0,0.0,0.0,0.0,0.0,0.0,-0.06726223230361938,0.32608795166015625,-0.006982361897826195,0.0,0.0,0.0,0.0,0.0,0.0,0.0,0.0,0.0,0.30153846740722656,-0.14000000059604645,9.306410789489746,0.0,0.0,0.0,0.0,0.0,0.0,0.0,0.0,0.0
1646351045.9097955,8372,1646351045,909477626,,0.0,0.0,0.0,0.0,0.0,0.0,0.0,0.0,0.0,0.0,0.0,0.0,0.0,-0.06406643241643906,0.3431321978569031,-0.012308684177696705,0.0,0.0,0.0,0.0,0.0,0.0,0.0,0.0,0.0,0.4810256361961365,0.26923078298568726,9.631281852722168,0.0,0.0,0.0,0.0,0.0,0.0,0.0,0.0,0.0
1646351045.9120567,8373,1646351045,911696083,,0.0,0.0,0.0,0.0,0.0,0.0,0.0,0.0,0.0,0.0,0.0,0.0,0.0,-0.057674847543239594,0.3548501133918762,0.018583983182907104,0.0,0.0,0.0,0.0,0.0,0.0,0.0,0.0,0.0,0.22256410121917725,-0.07538461685180664,9.279486656188965,0.0,0.0,0.0,0.0,0.0,0.0,0.0,0.0,0.0
1646351045.9150267,8374,1646351045,913886944,,0.0,0.0,0.0,0.0,0.0,0.0,0.0,0.0,0.0,0.0,0.0,0.0,0.0,-0.07898014038801193,0.35271957516670227,-0.028287649154663086,0.0,0.0,0.0,0.0,0.0,0.0,0.0,0.0,0.0,0.2710256576538086,0.3176923394203186,9.572051048278809,0.0,0.0,0.0,0.0,0.0,0.0,0.0,0.0,0.0
1646351045.916374,8375,1646351045,916127459,,0.0,0.0,0.0,0.0,0.0,0.0,0.0,0.0,0.0,0.0,0.0,0.0,0.0,-0.039565350860357285,0.3431321978569031,-0.009112890809774399,0.0,0.0,0.0,0.0,0.0,0.0,0.0,0.0,0.0,0.5007692575454712,-0.05025641247630119,9.20230770111084,0.0,0.0,0.0,0.0,0.0,0.0,0.0,0.0,0.0
1646351045.91897,8376,1646351045,918323592,,0.0,0.0,0.0,0.0,0.0,0.0,0.0,0.0,0.0,0.0,0.0,0.0,0.0,-0.06726223230361938,0.3697637617588043,-0.013373949564993382,0.0,0.0,0.0,0.0,0.0,0.0,0.0,0.0,0.0,0.4182051420211792,0.1705128252506256,9.406923294067383,0.0,0.0,0.0,0.0,0.0,0.0,0.0,0.0,0.0
1646351045.9208155,8377,1646351045,920502968,,0.0,0.0,0.0,0.0,0.0,0.0,0.0,0.0,0.0,0.0,0.0,0.0,0.0,-0.02997797727584839,0.3793511390686035,-0.038940295577049255,0.0,0.0,0.0,0.0,0.0,0.0,0.0,0.0,0.0,0.5294871926307678,-0.09512820839881897,9.4858980178833,0.0,0.0,0.0,0.0,0.0,0.0,0.0,0.0,0.0
1646351045.9230778,8378,1646351045,922753630,,0.0,0.0,0.0,0.0,0.0,0.0,0.0,0.0,0.0,0.0,0.0,0.0,0.0,-0.050217997282743454,0.39213433861732483,-0.016569742932915688,0.0,0.0,0.0,0.0,0.0,0.0,0.0,0.0,0.0,0.3912820518016815,0.22794872522354126,9.292051315307617,0.0,0.0,0.0,0.0,0.0,0.0,0.0,0.0,0.0
1646351045.926532,8379,1646351045,924965533,,0.0,0.0,0.0,0.0,0.0,0.0,0.0,0.0,0.0,0.0,0.0,0.0,0.0,-0.01506427489221096,0.3697637617588043,-0.011243419721722603,0.0,0.0,0.0,0.0,0.0,0.0,0.0,0.0,0.0,0.4056410491466522,0.05923077091574669,9.320769309997559,0.0,0.0,0.0,0.0,0.0,0.0,0.0,0.0,0.0
1646351045.927554,8380,1646351045,927246198,,0.0,0.0,0.0,0.0,0.0,0.0,0.0,0.0,0.0,0.0,0.0,0.0,0.0,-0.002281100954860449,0.40598276257514954,0.0026050168089568615,0.0,0.0,0.0,0.0,0.0,0.0,0.0,0.0,0.0,0.4271794855594635,-0.34641027450561523,9.681538581848145,0.0,0.0,0.0,0.0,0.0,0.0,0.0,0.0,0.0
1646351045.9297414,8381,1646351045,929451768,,0.0,0.0,0.0,0.0,0.0,0.0,0.0,0.0,0.0,0.0,0.0,0.0,0.0,0.014763129875063896,0.412374347448349,-0.03467923775315285,0.0,0.0,0.0,0.0,0.0,0.0,0.0,0.0,0.0,0.20102564990520477,0.2764102518558502,9.956153869628906,0.0,0.0,0.0,0.0,0.0,0.0,0.0,0.0,0.0
1646351045.9320521,8382,1646351045,931684453,,0.0,0.0,0.0,0.0,0.0,0.0,0.0,0.0,0.0,0.0,0.0,0.0,0.0,-0.0012158364988863468,0.41557013988494873,-0.01976553350687027,0.0,0.0,0.0,0.0,0.0,0.0,0.0,0.0,0.0,0.17589744925498962,-0.2297435998916626,9.647436141967773,0.0,0.0,0.0,0.0,0.0,0.0,0.0,0.0,0.0
1646351045.9342647,8383,1646351045,933866903,,0.0,0.0,0.0,0.0,0.0,0.0,0.0,0.0,0.0,0.0,0.0,0.0,0.0,0.03926420584321022,0.37722063064575195,-0.004851834382861853,0.0,0.0,0.0,0.0,0.0,0.0,0.0,0.0,0.0,0.38410258293151855,-0.026923077180981636,10.142821311950684,0.0,0.0,0.0,0.0,0.0,0.0,0.0,0.0,0.0
1646351045.9364684,8384,1646351045,936056472,,0.0,0.0,0.0,0.0,0.0,0.0,0.0,0.0,0.0,0.0,0.0,0.0,0.0,-0.024651652202010155,0.3974606394767761,0.0058008101768791676,0.0,0.0,0.0,0.0,0.0,0.0,0.0,0.0,0.0,0.29615384340286255,-0.4325641095638275,9.647436141967773,0.0,0.0,0.0,0.0,0.0,0.0,0.0,0.0,0.0
1646351045.9386892,8385,1646351045,938287940,,0.0,0.0,0.0,0.0,0.0,0.0,0.0,0.0,0.0,0.0,0.0,0.0,0.0,-0.00015057262498885393,0.4027869701385498,-0.012308684177696705,0.0,0.0,0.0,0.0,0.0,0.0,0.0,0.0,0.0,0.5905128121376038,-0.07897436618804932,9.701282501220703,0.0,0.0,0.0,0.0,0.0,0.0,0.0,0.0,0.0
1646351045.9408832,8386,1646351045,940481124,,0.0,0.0,0.0,0.0,0.0,0.0,0.0,0.0,0.0,0.0,0.0,0.0,0.0,0.008371543139219284,0.4315491020679474,-0.01976553350687027,0.0,0.0,0.0,0.0,0.0,0.0,0.0,0.0,0.0,0.2764102518558502,-0.17589744925498962,9.94359016418457,0.0,0.0,0.0,0.0,0.0,0.0,0.0,0.0,0.0
1646351045.942921,8387,1646351045,942678043,,0.0,0.0,0.0,0.0,0.0,0.0,0.0,0.0,0.0,0.0,0.0,0.0,0.0,-0.023586388677358627,0.4177006781101227,0.010061867535114288,0.0,0.0,0.0,0.0,0.0,0.0,0.0,0.0,0.0,0.4146153926849365,-0.10410256683826447,9.75333309173584,0.0,0.0,0.0,0.0,0.0,0.0,0.0,0.0,0.0
1646351045.9452085,8388,1646351045,944909065,,0.0,0.0,0.0,0.0,0.0,0.0,0.0,0.0,0.0,0.0,0.0,0.0,0.0,-0.03530430048704147,0.43261438608169556,0.000474488188046962,0.0,0.0,0.0,0.0,0.0,0.0,0.0,0.0,0.0,0.3069230914115906,-0.1058974415063858,9.715641021728516,0.0,0.0,0.0,0.0,0.0,0.0,0.0,0.0,0.0
1646351045.9476442,8389,1646351045,947172681,,0.0,0.0,0.0,0.0,0.0,0.0,0.0,0.0,0.0,0.0,0.0,0.0,0.0,-0.042761147022247314,0.4272880554199219,0.0047355457209050655,0.0,0.0,0.0,0.0,0.0,0.0,0.0,0.0,0.0,0.2207692414522171,-0.25487178564071655,9.35487174987793,0.0,0.0,0.0,0.0,0.0,0.0,0.0,0.0,0.0
1646351045.9497786,8390,1646351045,949365118,,0.0,0.0,0.0,0.0,0.0,0.0,0.0,0.0,0.0,0.0,0.0,0.0,0.0,-0.042761147022247314,0.40917855501174927,-0.02296132780611515,0.0,0.0,0.0,0.0,0.0,0.0,0.0,0.0,0.0,0.016153845936059952,-0.05025641247630119,9.852051734924316,0.0,0.0,0.0,0.0,0.0,0.0,0.0,0.0,0.0
1646351045.952133,8391,1646351045,951627683,,0.0,0.0,0.0,0.0,0.0,0.0,0.0,0.0,0.0,0.0,0.0,0.0,0.0,-0.06939276307821274,0.43261438608169556,-0.008047626353800297,0.0,0.0,0.0,0.0,0.0,0.0,0.0,0.0,0.0,0.14538460969924927,-0.27820512652397156,9.667179107666016,0.0,0.0,0.0,0.0,0.0,0.0,0.0,0.0,0.0
1646351045.9542274,8392,1646351045,953856888,,0.0,0.0,0.0,0.0,0.0,0.0,0.0,0.0,0.0,0.0,0.0,0.0,0.0,-0.08430645614862442,0.42835330963134766,-0.02296132780611515,0.0,0.0,0.0,0.0,0.0,0.0,0.0,0.0,0.0,0.07897436618804932,0.3266666829586029,9.774871826171875,0.0,0.0,0.0,0.0,0.0,0.0,0.0,0.0,0.0
1646351045.958073,8393,1646351045,956047197,,0.0,0.0,0.0,0.0,0.0,0.0,0.0,0.0,0.0,0.0,0.0,0.0,0.0,-0.07471907883882523,0.4208964705467224,0.01112713199108839,0.0,0.0,0.0,0.0,0.0,0.0,0.0,0.0,0.0,0.07000000029802322,-0.12923076748847961,9.719230651855469,0.0,0.0,0.0,0.0,0.0,0.0,0.0,0.0,0.0
1646351045.9584973,8394,1646351045,958220632,,0.0,0.0,0.0,0.0,0.0,0.0,0.0,0.0,0.0,0.0,0.0,0.0,0.0,-0.08324119448661804,0.4294185936450958,-0.006982361897826195,0.0,0.0,0.0,0.0,0.0,0.0,0.0,0.0,0.0,-0.16871795058250427,-0.18128205835819244,9.534358978271484,0.0,0.0,0.0,0.0,0.0,0.0,0.0,0.0,0.0
1646351045.9608645,8395,1646351045,960496773,,0.0,0.0,0.0,0.0,0.0,0.0,0.0,0.0,0.0,0.0,0.0,0.0,0.0,-0.06726223230361938,0.4304838478565216,-0.006982361897826195,0.0,0.0,0.0,0.0,0.0,0.0,0.0,0.0,0.0,0.023333333432674408,0.25128206610679626,9.91128158569336,0.0,0.0,0.0,0.0,0.0,0.0,0.0,0.0,0.0
1646351045.9629917,8396,1646351045,962674113,,0.0,0.0,0.0,0.0,0.0,0.0,0.0,0.0,0.0,0.0,0.0,0.0,0.0,-0.07258854806423187,0.401721715927124,0.021779777482151985,0.0,0.0,0.0,0.0,0.0,0.0,0.0,0.0,0.0,0.11307692527770996,-0.03769230842590332,9.36025619506836,0.0,0.0,0.0,0.0,0.0,0.0,0.0,0.0,0.0
1646351045.965299,8397,1646351045,964848863,,0.0,0.0,0.0,0.0,0.0,0.0,0.0,0.0,0.0,0.0,0.0,0.0,0.0,-0.066196970641613,0.4081133008003235,-0.008047626353800297,0.0,0.0,0.0,0.0,0.0,0.0,0.0,0.0,0.0,0.0,0.2117948830127716,9.844871520996094,0.0,0.0,0.0,0.0,0.0,0.0,0.0,0.0,0.0
1646351045.9674618,8398,1646351045,967153780,,0.0,0.0,0.0,0.0,0.0,0.0,0.0,0.0,0.0,0.0,0.0,0.0,0.0,-0.04382640868425369,0.4166353940963745,0.013257660903036594,0.0,0.0,0.0,0.0,0.0,0.0,0.0,0.0,0.0,0.40743592381477356,-0.03589743748307228,9.331538200378418,0.0,0.0,0.0,0.0,0.0,0.0,0.0,0.0,0.0
1646351045.9697812,8399,1646351045,969332452,,0.0,0.0,0.0,0.0,0.0,0.0,0.0,0.0,0.0,0.0,0.0,0.0,0.0,-0.032108504325151443,0.4027869701385498,-0.014439214020967484,0.0,0.0,0.0,0.0,0.0,0.0,0.0,0.0,0.0,0.18487180769443512,0.3858974575996399,9.74794864654541,0.0,0.0,0.0,0.0,0.0,0.0,0.0,0.0,0.0
1646351045.9718146,8400,1646351045,971526307,,0.0,0.0,0.0,0.0,0.0,0.0,0.0,0.0,0.0,0.0,0.0,0.0,0.0,-0.018260065466165543,0.3995911777019501,-0.0037865692283958197,0.0,0.0,0.0,0.0,0.0,0.0,0.0,0.0,0.0,0.38948720693588257,-0.01794871874153614,9.503846168518066,0.0,0.0,0.0,0.0,0.0,0.0,0.0,0.0,0.0
1646351045.9739885,8401,1646351045,973719391,,0.0,0.0,0.0,0.0,0.0,0.0,0.0,0.0,0.0,0.0,0.0,0.0,0.0,-0.02678218111395836,0.40491750836372375,0.000474488188046962,0.0,0.0,0.0,0.0,0.0,0.0,0.0,0.0,0.0,0.05923077091574669,0.2746153771877289,9.730000495910645,0.0,0.0,0.0,0.0,0.0,0.0,0.0,0.0,0.0
1646351045.9762971,8402,1646351045,975911486,,0.0,0.0,0.0,0.0,0.0,0.0,0.0,0.0,0.0,0.0,0.0,0.0,0.0,-0.002281100954860449,0.4219617247581482,0.0058008101768791676,0.0,0.0,0.0,0.0,0.0,0.0,0.0,0.0,0.0,0.22615385055541992,-0.028717949986457825,9.498461723327637,0.0,0.0,0.0,0.0,0.0,0.0,0.0,0.0,0.0
1646351045.9785116,8403,1646351045,978104378,,0.0,0.0,0.0,0.0,0.0,0.0,0.0,0.0,0.0,0.0,0.0,0.0,0.0,-0.00015057262498885393,0.4177006781101227,0.0058008101768791676,0.0,0.0,0.0,0.0,0.0,0.0,0.0,0.0,0.0,-0.1148717999458313,-0.16871795058250427,9.139487266540527,0.0,0.0,0.0,0.0,0.0,0.0,0.0,0.0,0.0
1646351045.9806628,8404,1646351045,980295037,,0.0,0.0,0.0,0.0,0.0,0.0,0.0,0.0,0.0,0.0,0.0,0.0,0.0,0.004110485315322876,0.4081133008003235,-0.005917098838835955,0.0,0.0,0.0,0.0,0.0,0.0,0.0,0.0,0.0,-0.06102564185857773,0.11666666716337204,9.756922721862793,0.0,0.0,0.0,0.0,0.0,0.0,0.0,0.0,0.0
1646351045.9830117,8405,1646351045,982530340,,0.0,0.0,0.0,0.0,0.0,0.0,0.0,0.0,0.0,0.0,0.0,0.0,0.0,0.019024187698960304,0.41876593232154846,-0.0027213047724217176,0.0,0.0,0.0,0.0,0.0,0.0,0.0,0.0,0.0,-0.2853846251964569,-0.09692308306694031,9.071281433105469,0.0,0.0,0.0,0.0,0.0,0.0,0.0,0.0,0.0
1646351045.9851766,8406,1646351045,984724317,,0.0,0.0,0.0,0.0,0.0,0.0,0.0,0.0,0.0,0.0,0.0,0.0,0.0,-0.01506427489221096,0.39639538526535034,0.0164534542709589,0.0,0.0,0.0,0.0,0.0,0.0,0.0,0.0,0.0,-0.12025640904903412,0.05564102530479431,9.620512962341309,0.0,0.0,0.0,0.0,0.0,0.0,0.0,0.0,0.0
1646351045.987264,8407,1646351045,986926488,,0.0,0.0,0.0,0.0,0.0,0.0,0.0,0.0,0.0,0.0,0.0,0.0,0.0,0.007306278217583895,0.4113090932369232,0.0036702812649309635,0.0,0.0,0.0,0.0,0.0,0.0,0.0,0.0,0.0,-0.3410256505012512,-0.2207692414522171,9.259743690490723,0.0,0.0,0.0,0.0,0.0,0.0,0.0,0.0,0.0
1646351045.9895365,8408,1646351045,989149307,,0.0,0.0,0.0,0.0,0.0,0.0,0.0,0.0,0.0,0.0,0.0,0.0,0.0,0.017958922311663628,0.4166353940963745,-0.0016560404328629375,0.0,0.0,0.0,0.0,0.0,0.0,0.0,0.0,0.0,-0.001794871874153614,-0.001794871874153614,9.60076904296875,0.0,0.0,0.0,0.0,0.0,0.0,0.0,0.0,0.0
1646351045.9918382,8409,1646351045,991397954,,0.0,0.0,0.0,0.0,0.0,0.0,0.0,0.0,0.0,0.0,0.0,0.0,0.0,0.012632600963115692,0.40917855501174927,-0.03254871070384979,0.0,0.0,0.0,0.0,0.0,0.0,0.0,0.0,0.0,-0.27820512652397156,-0.0735897421836853,9.677948951721191,0.0,0.0,0.0,0.0,0.0,0.0,0.0,0.0,0.0
1646351045.9939811,8410,1646351045,993592395,,0.0,0.0,0.0,0.0,0.0,0.0,0.0,0.0,0.0,0.0,0.0,0.0,0.0,0.013697865419089794,0.40917855501174927,0.012192396447062492,0.0,0.0,0.0,0.0,0.0,0.0,0.0,0.0,0.0,0.04307692497968674,0.07538461685180664,9.738973617553711,0.0,0.0,0.0,0.0,0.0,0.0,0.0,0.0,0.0
1646351045.9973626,8411,1646351045,995772380,,0.0,0.0,0.0,0.0,0.0,0.0,0.0,0.0,0.0,0.0,0.0,0.0,0.0,0.01689365692436695,0.4081133008003235,-0.0037865692283958197,0.0,0.0,0.0,0.0,0.0,0.0,0.0,0.0,0.0,0.09333333373069763,-0.11128205060958862,9.65461540222168,0.0,0.0,0.0,0.0,0.0,0.0,0.0,0.0,0.0
1646351045.99837,8412,1646351045,997958766,,0.0,0.0,0.0,0.0,0.0,0.0,0.0,0.0,0.0,0.0,0.0,0.0,0.0,0.022219980135560036,0.4304838478565216,0.012192396447062492,0.0,0.0,0.0,0.0,0.0,0.0,0.0,0.0,0.0,-0.12923076748847961,-0.2656410336494446,10.045896530151367,0.0,0.0,0.0,0.0,0.0,0.0,0.0,0.0,0.0
1646351046.000451,8413,1646351046,163372,,0.0,0.0,0.0,0.0,0.0,0.0,0.0,0.0,0.0,0.0,0.0,0.0,0.0,0.04885159060359001,0.41876593232154846,-0.011243419721722603,0.0,0.0,0.0,0.0,0.0,0.0,0.0,0.0,0.0,-0.1238461583852768,-0.003589743748307228,10.193077087402344,0.0,0.0,0.0,0.0,0.0,0.0,0.0,0.0,0.0
1646351046.0028489,8414,1646351046,2412075,,0.0,0.0,0.0,0.0,0.0,0.0,0.0,0.0,0.0,0.0,0.0,0.0,0.0,0.010502072051167488,0.3985259234905243,0.0164534542709589,0.0,0.0,0.0,0.0,0.0,0.0,0.0,0.0,0.0,-0.43794873356819153,-0.38769233226776123,10.14640998840332,0.0,0.0,0.0,0.0,0.0,0.0,0.0,0.0,0.0
1646351046.0049577,8415,1646351046,4617920,,0.0,0.0,0.0,0.0,0.0,0.0,0.0,0.0,0.0,0.0,0.0,0.0,0.0,0.030742093920707703,0.35911116003990173,0.0026050168089568615,0.0,0.0,0.0,0.0,0.0,0.0,0.0,0.0,0.0,-0.007179487496614456,-0.07897436618804932,10.334872245788574,0.0,0.0,0.0,0.0,0.0,0.0,0.0,0.0,0.0
1646351046.007226,8416,1646351046,6807416,,0.0,0.0,0.0,0.0,0.0,0.0,0.0,0.0,0.0,0.0,0.0,0.0,0.0,0.022219980135560036,0.37295955419540405,0.012192396447062492,0.0,0.0,0.0,0.0,0.0,0.0,0.0,0.0,0.0,0.09512820839881897,-0.39846155047416687,10.054871559143066,0.0,0.0,0.0,0.0,0.0,0.0,0.0,0.0,0.0
1646351046.009301,8417,1646351046,8998939,,0.0,0.0,0.0,0.0,0.0,0.0,0.0,0.0,0.0,0.0,0.0,0.0,0.0,0.012632600963115692,0.34845852851867676,0.0015397525858134031,0.0,0.0,0.0,0.0,0.0,0.0,0.0,0.0,0.0,-0.18307693302631378,0.03769230842590332,10.595128059387207,0.0,0.0,0.0,0.0,0.0,0.0,0.0,0.0,0.0
1646351046.011575,8418,1646351046,11258139,,0.0,0.0,0.0,0.0,0.0,0.0,0.0,0.0,0.0,0.0,0.0,0.0,0.0,0.023285245522856712,0.3324795365333557,-0.03041817992925644,0.0,0.0,0.0,0.0,0.0,0.0,0.0,0.0,0.0,-0.29615384340286255,-0.3410256505012512,10.142821311950684,0.0,0.0,0.0,0.0,0.0,0.0,0.0,0.0,0.0
1646351046.0138266,8419,1646351046,13477577,,0.0,0.0,0.0,0.0,0.0,0.0,0.0,0.0,0.0,0.0,0.0,0.0,0.0,0.019024187698960304,0.3090437352657318,-0.008047626353800297,0.0,0.0,0.0,0.0,0.0,0.0,0.0,0.0,0.0,-0.2925640940666199,-0.6425641179084778,10.255897521972656,0.0,0.0,0.0,0.0,0.0,0.0,0.0,0.0,0.0
1646351046.0159428,8420,1646351046,15726076,,0.0,0.0,0.0,0.0,0.0,0.0,0.0,0.0,0.0,0.0,0.0,0.0,0.0,0.013697865419089794,0.3090437352657318,0.01964924857020378,0.0,0.0,0.0,0.0,0.0,0.0,0.0,0.0,0.0,-0.35538461804389954,-0.22435897588729858,10.19487190246582,0.0,0.0,0.0,0.0,0.0,0.0,0.0,0.0,0.0
1646351046.0183582,8421,1646351046,17988371,,0.0,0.0,0.0,0.0,0.0,0.0,0.0,0.0,0.0,0.0,0.0,0.0,0.0,0.010502072051167488,0.2909342050552368,-0.0005907765007577837,0.0,0.0,0.0,0.0,0.0,0.0,0.0,0.0,0.0,-0.2441025674343109,-0.26923078298568726,10.162564277648926,0.0,0.0,0.0,0.0,0.0,0.0,0.0,0.0,0.0
1646351046.0206501,8422,1646351046,20272620,,0.0,0.0,0.0,0.0,0.0,0.0,0.0,0.0,0.0,0.0,0.0,0.0,0.0,0.013697865419089794,0.25684574246406555,-0.012308684177696705,0.0,0.0,0.0,0.0,0.0,0.0,0.0,0.0,0.0,-0.1884615421295166,-0.010769231244921684,10.46230697631836,0.0,0.0,0.0,0.0,0.0,0.0,0.0,0.0,0.0
1646351046.023139,8423,1646351046,22490474,,0.0,0.0,0.0,0.0,0.0,0.0,0.0,0.0,0.0,0.0,0.0,0.0,0.0,-0.016129538416862488,0.2536499500274658,-0.0027213047724217176,0.0,0.0,0.0,0.0,0.0,0.0,0.0,0.0,0.0,-0.15974359214305878,-0.41102564334869385,10.421026229858398,0.0,0.0,0.0,0.0,0.0,0.0,0.0,0.0,0.0
1646351046.0249534,8424,1646351046,24682232,,0.0,0.0,0.0,0.0,0.0,0.0,0.0,0.0,0.0,0.0,0.0,0.0,0.0,-0.017194801941514015,0.2504541575908661,-0.0027213047724217176,0.0,0.0,0.0,0.0,0.0,0.0,0.0,0.0,0.0,-0.44333335757255554,0.1148717999458313,10.351025581359863,0.0,0.0,0.0,0.0,0.0,0.0,0.0,0.0,0.0
1646351046.0272725,8425,1646351046,26890759,,0.0,0.0,0.0,0.0,0.0,0.0,0.0,0.0,0.0,0.0,0.0,0.0,0.0,-0.07898014038801193,0.23234465718269348,0.02071451209485531,0.0,0.0,0.0,0.0,0.0,0.0,0.0,0.0,0.0,-0.4810256361961365,-0.0825641080737114,10.144615173339844,0.0,0.0,0.0,0.0,0.0,0.0,0.0,0.0,0.0
1646351046.0294502,8426,1646351046,29130845,,0.0,0.0,0.0,0.0,0.0,0.0,0.0,0.0,0.0,0.0,0.0,0.0,0.0,-0.04915273189544678,0.20677831768989563,-0.012308684177696705,0.0,0.0,0.0,0.0,0.0,0.0,0.0,0.0,0.0,-0.5276923179626465,-0.1974359005689621,10.018974304199219,0.0,0.0,0.0,0.0,0.0,0.0,0.0,0.0,0.0
1646351046.0317543,8427,1646351046,31358329,,0.0,0.0,0.0,0.0,0.0,0.0,0.0,0.0,0.0,0.0,0.0,0.0,0.0,-0.06832749396562576,0.20997411012649536,-0.03254871070384979,0.0,0.0,0.0,0.0,0.0,0.0,0.0,0.0,0.0,-0.4146153926849365,0.3535897731781006,9.986666679382324,0.0,0.0,0.0,0.0,0.0,0.0,0.0,0.0,0.0
1646351046.034006,8428,1646351046,33616098,,0.0,0.0,0.0,0.0,0.0,0.0,0.0,0.0,0.0,0.0,0.0,0.0,0.0,-0.08111066371202469,0.2312793880701065,0.01112713199108839,0.0,0.0,0.0,0.0,0.0,0.0,0.0,0.0,0.0,-0.5312820672988892,-0.01974359154701233,9.740769386291504,0.0,0.0,0.0,0.0,0.0,0.0,0.0,0.0,0.0
1646351046.0368276,8429,1646351046,35825262,,0.0,0.0,0.0,0.0,0.0,0.0,0.0,0.0,0.0,0.0,0.0,0.0,0.0,-0.06832749396562576,0.21210463345050812,-0.0368097685277462,0.0,0.0,0.0,0.0,0.0,0.0,0.0,0.0,0.0,-0.5438461303710938,0.2387179583311081,9.89512825012207,0.0,0.0,0.0,0.0,0.0,0.0,0.0,0.0,0.0
1646351046.0383584,8430,1646351046,38026747,,0.0,0.0,0.0,0.0,0.0,0.0,0.0,0.0,0.0,0.0,0.0,0.0,0.0,-0.0715232864022255,0.21210463345050812,0.01112713199108839,0.0,0.0,0.0,0.0,0.0,0.0,0.0,0.0,0.0,-0.8417949080467224,0.03769230842590332,9.478717803955078,0.0,0.0,0.0,0.0,0.0,0.0,0.0,0.0,0.0
1646351046.0404513,8431,1646351046,40215212,,0.0,0.0,0.0,0.0,0.0,0.0,0.0,0.0,0.0,0.0,0.0,0.0,0.0,-0.045956939458847046,0.17908145487308502,0.01112713199108839,0.0,0.0,0.0,0.0,0.0,0.0,0.0,0.0,0.0,-0.14358974993228912,0.3643589913845062,9.509230613708496,0.0,0.0,0.0,0.0,0.0,0.0,0.0,0.0,0.0
1646351046.0427825,8432,1646351046,42465659,,0.0,0.0,0.0,0.0,0.0,0.0,0.0,0.0,0.0,0.0,0.0,0.0,0.0,-0.03636956214904785,0.2078435719013214,0.0015397525858134031,0.0,0.0,0.0,0.0,0.0,0.0,0.0,0.0,0.0,-0.1651282161474228,0.3302564322948456,9.390769004821777,0.0,0.0,0.0,0.0,0.0,0.0,0.0,0.0,0.0
1646351046.045097,8433,1646351046,44660435,,0.0,0.0,0.0,0.0,0.0,0.0,0.0,0.0,0.0,0.0,0.0,0.0,0.0,-0.018260065466165543,0.180146723985672,0.008996603079140186,0.0,0.0,0.0,0.0,0.0,0.0,0.0,0.0,0.0,-0.16692309081554413,0.5115384459495544,9.530769348144531,0.0,0.0,0.0,0.0,0.0,0.0,0.0,0.0,0.0
1646351046.047064,8434,1646351046,46857181,,0.0,0.0,0.0,0.0,0.0,0.0,0.0,0.0,0.0,0.0,0.0,0.0,0.0,-0.003346365410834551,0.16523301601409912,-0.0005907765007577837,0.0,0.0,0.0,0.0,0.0,0.0,0.0,0.0,0.0,-0.18487180769443512,0.19205129146575928,9.225641250610352,0.0,0.0,0.0,0.0,0.0,0.0,0.0,0.0,0.0
1646351046.0493767,8435,1646351046,49085544,,0.0,0.0,0.0,0.0,0.0,0.0,0.0,0.0,0.0,0.0,0.0,0.0,0.0,0.008371543139219284,0.17801618576049805,-0.004851834382861853,0.0,0.0,0.0,0.0,0.0,0.0,0.0,0.0,0.0,-0.25487178564071655,0.4092307686805725,9.536153793334961,0.0,0.0,0.0,0.0,0.0,0.0,0.0,0.0,0.0
1646351046.0516398,8436,1646351046,51291332,,0.0,0.0,0.0,0.0,0.0,0.0,0.0,0.0,0.0,0.0,0.0,0.0,0.0,0.037133678793907166,0.18653830885887146,0.010061867535114288,0.0,0.0,0.0,0.0,0.0,0.0,0.0,0.0,0.0,-0.35538461804389954,0.06102564185857773,9.744359016418457,0.0,0.0,0.0,0.0,0.0,0.0,0.0,0.0,0.0
1646351046.0539246,8437,1646351046,53495052,,0.0,0.0,0.0,0.0,0.0,0.0,0.0,0.0,0.0,0.0,0.0,0.0,0.0,0.04565579816699028,0.18760354816913605,0.03136715292930603,0.0,0.0,0.0,0.0,0.0,0.0,0.0,0.0,0.0,-0.5187179446220398,-0.3320513069629669,9.277692794799805,0.0,0.0,0.0,0.0,0.0,0.0,0.0,0.0,0.0
1646351046.0559413,8438,1646351046,55681053,,0.0,0.0,0.0,0.0,0.0,0.0,0.0,0.0,0.0,0.0,0.0,0.0,0.0,0.07015687227249146,0.17801618576049805,0.010061867535114288,0.0,0.0,0.0,0.0,0.0,0.0,0.0,0.0,0.0,-0.23692308366298676,-0.044871795922517776,9.800000190734863,0.0,0.0,0.0,0.0,0.0,0.0,0.0,0.0,0.0
1646351046.0581863,8439,1646351046,57885242,,0.0,0.0,0.0,0.0,0.0,0.0,0.0,0.0,0.0,0.0,0.0,0.0,0.0,0.07548320293426514,0.18653830885887146,0.017518719658255577,0.0,0.0,0.0,0.0,0.0,0.0,0.0,0.0,0.0,-0.2943589687347412,-0.30512821674346924,9.685128211975098,0.0,0.0,0.0,0.0,0.0,0.0,0.0,0.0,0.0
1646351046.0603807,8440,1646351046,60126561,,0.0,0.0,0.0,0.0,0.0,0.0,0.0,0.0,0.0,0.0,0.0,0.0,0.0,0.10424532741308212,0.15884143114089966,0.0036702812649309635,0.0,0.0,0.0,0.0,0.0,0.0,0.0,0.0,0.0,-0.05025641247630119,-0.38948720693588257,9.947179794311523,0.0,0.0,0.0,0.0,0.0,0.0,0.0,0.0,0.0
1646351046.0628264,8441,1646351046,62338888,,0.0,0.0,0.0,0.0,0.0,0.0,0.0,0.0,0.0,0.0,0.0,0.0,0.0,0.07974426448345184,0.17268986999988556,-0.004851834382861853,0.0,0.0,0.0,0.0,0.0,0.0,0.0,0.0,0.0,-0.19923077523708344,-0.30512821674346924,8.595641136169434,0.0,0.0,0.0,0.0,0.0,0.0,0.0,0.0,0.0
1646351046.0652368,8442,1646351046,64562880,,0.0,0.0,0.0,0.0,0.0,0.0,0.0,0.0,0.0,0.0,0.0,0.0,0.0,0.04991685226559639,0.16949407756328583,0.014322925359010696,0.0,0.0,0.0,0.0,0.0,0.0,0.0,0.0,0.0,-0.3176923394203186,-0.05025641247630119,10.580768585205078,0.0,0.0,0.0,0.0,0.0,0.0,0.0,0.0,0.0
1646351046.0671911,8443,1646351046,66777105,,0.0,0.0,0.0,0.0,0.0,0.0,0.0,0.0,0.0,0.0,0.0,0.0,0.0,0.07441793382167816,0.1662982851266861,-0.020830798894166946,0.0,0.0,0.0,0.0,0.0,0.0,0.0,0.0,0.0,-0.46128207445144653,-0.5438461303710938,9.415897369384766,0.0,0.0,0.0,0.0,0.0,0.0,0.0,0.0,0.0
1646351046.069366,8444,1646351046,68982647,,0.0,0.0,0.0,0.0,0.0,0.0,0.0,0.0,0.0,0.0,0.0,0.0,0.0,0.05950423330068588,0.17375513911247253,-0.018700269982218742,0.0,0.0,0.0,0.0,0.0,0.0,0.0,0.0,0.0,-0.2710256576538086,-1.0912820100784302,9.74794864654541,0.0,0.0,0.0,0.0,0.0,0.0,0.0,0.0,0.0
1646351046.0717046,8445,1646351046,71417332,,0.0,0.0,0.0,0.0,0.0,0.0,0.0,0.0,0.0,0.0,0.0,0.0,0.0,-0.010803216136991978,0.17482039332389832,-0.0101781552657485,0.0,0.0,0.0,0.0,0.0,0.0,0.0,0.0,0.0,-0.2800000011920929,0.01794871874153614,8.629743576049805,0.0,0.0,0.0,0.0,0.0,0.0,0.0,0.0,0.0
1646351046.073938,8446,1646351046,73604651,,0.0,0.0,0.0,0.0,0.0,0.0,0.0,0.0,0.0,0.0,0.0,0.0,0.0,-0.028912710025906563,0.17695093154907227,-0.0005907765007577837,0.0,0.0,0.0,0.0,0.0,0.0,0.0,0.0,0.0,-0.2064102590084076,-0.43794873356819153,10.06384563446045,0.0,0.0,0.0,0.0,0.0,0.0,0.0,0.0,0.0
1646351046.0772707,8447,1646351046,75785120,,0.0,0.0,0.0,0.0,0.0,0.0,0.0,0.0,0.0,0.0,0.0,0.0,0.0,-0.0342390350997448,0.15990670025348663,-0.024026591330766678,0.0,0.0,0.0,0.0,0.0,0.0,0.0,0.0,0.0,-0.3571794927120209,-0.3392307758331299,9.738973617553711,0.0,0.0,0.0,0.0,0.0,0.0,0.0,0.0,0.0
1646351046.078247,8448,1646351046,77980238,,0.0,0.0,0.0,0.0,0.0,0.0,0.0,0.0,0.0,0.0,0.0,0.0,0.0,-0.04169588163495064,0.1524498462677002,-0.0101781552657485,0.0,0.0,0.0,0.0,0.0,0.0,0.0,0.0,0.0,-0.39846155047416687,-0.6210256814956665,9.564871788024902,0.0,0.0,0.0,0.0,0.0,0.0,0.0,0.0,0.0
1646351046.0805395,8449,1646351046,80186159,,0.0,0.0,0.0,0.0,0.0,0.0,0.0,0.0,0.0,0.0,0.0,0.0,0.0,-0.0853717252612114,0.13647088408470154,0.010061867535114288,0.0,0.0,0.0,0.0,0.0,0.0,0.0,0.0,0.0,-0.6856410503387451,-0.16153846681118011,9.107179641723633,0.0,0.0,0.0,0.0,0.0,0.0,0.0,0.0,0.0
1646351046.0829344,8450,1646351046,82426708,,0.0,0.0,0.0,0.0,0.0,0.0,0.0,0.0,0.0,0.0,0.0,0.0,0.0,-0.08324119448661804,0.15884143114089966,-0.03787503018975258,0.0,0.0,0.0,0.0,0.0,0.0,0.0,0.0,0.0,-0.5976923108100891,0.11128205060958862,9.796409606933594,0.0,0.0,0.0,0.0,0.0,0.0,0.0,0.0,0.0
1646351046.0849838,8451,1646351046,84617372,,0.0,0.0,0.0,0.0,0.0,0.0,0.0,0.0,0.0,0.0,0.0,0.0,0.0,-0.08111066371202469,0.15351511538028717,-0.021896062418818474,0.0,0.0,0.0,0.0,0.0,0.0,0.0,0.0,0.0,-0.6641026139259338,-0.38948720693588257,9.286666870117188,0.0,0.0,0.0,0.0,0.0,0.0,0.0,0.0,0.0
1646351046.0871358,8452,1646351046,86809463,,0.0,0.0,0.0,0.0,0.0,0.0,0.0,0.0,0.0,0.0,0.0,0.0,0.0,-0.09282857179641724,0.15564563870429993,-0.03254871070384979,0.0,0.0,0.0,0.0,0.0,0.0,0.0,0.0,0.0,-0.28358975052833557,0.1741025745868683,9.843076705932617,0.0,0.0,0.0,0.0,0.0,0.0,0.0,0.0,0.0
1646351046.089483,8453,1646351046,89088624,,0.0,0.0,0.0,0.0,0.0,0.0,0.0,0.0,0.0,0.0,0.0,0.0,0.0,-0.08324119448661804,0.16097195446491241,-0.0005907765007577837,0.0,0.0,0.0,0.0,0.0,0.0,0.0,0.0,0.0,-0.5600000023841858,0.02153846248984337,9.342308044433594,0.0,0.0,0.0,0.0,0.0,0.0,0.0,0.0,0.0
1646351046.0916243,8454,1646351046,91301818,,0.0,0.0,0.0,0.0,0.0,0.0,0.0,0.0,0.0,0.0,0.0,0.0,0.0,-0.08004540205001831,0.17801618576049805,-0.026157120242714882,0.0,0.0,0.0,0.0,0.0,0.0,0.0,0.0,0.0,-0.3643589913845062,0.6676923632621765,9.56128215789795,0.0,0.0,0.0,0.0,0.0,0.0,0.0,0.0,0.0
1646351046.094011,8455,1646351046,93584697,,0.0,0.0,0.0,0.0,0.0,0.0,0.0,0.0,0.0,0.0,0.0,0.0,0.0,-0.039565350860357285,0.19612567126750946,-0.017635004594922066,0.0,0.0,0.0,0.0,0.0,0.0,0.0,0.0,0.0,-0.29076921939849854,0.15435898303985596,9.35487174987793,0.0,0.0,0.0,0.0,0.0,0.0,0.0,0.0,0.0
1646351046.096099,8456,1646351046,95799318,,0.0,0.0,0.0,0.0,0.0,0.0,0.0,0.0,0.0,0.0,0.0,0.0,0.0,-0.04702220484614372,0.19292987883090973,-0.016569742932915688,0.0,0.0,0.0,0.0,0.0,0.0,0.0,0.0,0.0,-0.2297435998916626,0.37871795892715454,9.347692489624023,0.0,0.0,0.0,0.0,0.0,0.0,0.0,0.0,0.0
1646351046.0983958,8457,1646351046,98018882,,0.0,0.0,0.0,0.0,0.0,0.0,0.0,0.0,0.0,0.0,0.0,0.0,0.0,-0.01506427489221096,0.20145198702812195,-0.016569742932915688,0.0,0.0,0.0,0.0,0.0,0.0,0.0,0.0,0.0,-0.10230769217014313,0.07717949151992798,9.243589401245117,0.0,0.0,0.0,0.0,0.0,0.0,0.0,0.0,0.0
1646351046.100511,8458,1646351046,100202729,,0.0,0.0,0.0,0.0,0.0,0.0,0.0,0.0,0.0,0.0,0.0,0.0,0.0,-0.018260065466165543,0.21423517167568207,0.010061867535114288,0.0,0.0,0.0,0.0,0.0,0.0,0.0,0.0,0.0,-0.4828205108642578,0.22435897588729858,9.238204956054688,0.0,0.0,0.0,0.0,0.0,0.0,0.0,0.0,0.0
1646351046.1027899,8459,1646351046,102398618,,0.0,0.0,0.0,0.0,0.0,0.0,0.0,0.0,0.0,0.0,0.0,0.0,0.0,0.001979956403374672,0.20038673281669617,-0.024026591330766678,0.0,0.0,0.0,0.0,0.0,0.0,0.0,0.0,0.0,-0.3302564322948456,0.3571794927120209,9.530769348144531,0.0,0.0,0.0,0.0,0.0,0.0,0.0,0.0,0.0
1646351046.104884,8460,1646351046,104578348,,0.0,0.0,0.0,0.0,0.0,0.0,0.0,0.0,0.0,0.0,0.0,0.0,0.0,0.02115471661090851,0.22914886474609375,0.018583983182907104,0.0,0.0,0.0,0.0,0.0,0.0,0.0,0.0,0.0,-0.7035897970199585,-0.08076923340559006,9.29025650024414,0.0,0.0,0.0,0.0,0.0,0.0,0.0,0.0,0.0
1646351046.1071398,8461,1646351046,106758482,,0.0,0.0,0.0,0.0,0.0,0.0,0.0,0.0,0.0,0.0,0.0,0.0,0.0,0.030742093920707703,0.22595307230949402,-0.025091856718063354,0.0,0.0,0.0,0.0,0.0,0.0,0.0,0.0,0.0,-0.45769232511520386,0.3176923394203186,9.60076904296875,0.0,0.0,0.0,0.0,0.0,0.0,0.0,0.0,0.0
1646351046.1103296,8462,1646351046,108996490,,0.0,0.0,0.0,0.0,0.0,0.0,0.0,0.0,0.0,0.0,0.0,0.0,0.0,0.03606841340661049,0.2227572798728943,0.0164534542709589,0.0,0.0,0.0,0.0,0.0,0.0,0.0,0.0,0.0,-0.22435897588729858,-0.25846153497695923,9.315383911132812,0.0,0.0,0.0,0.0,0.0,0.0,0.0,0.0,0.0
1646351046.1114924,8463,1646351046,111170533,,0.0,0.0,0.0,0.0,0.0,0.0,0.0,0.0,0.0,0.0,0.0,0.0,0.0,0.06056949496269226,0.2216920107603073,-0.02722238563001156,0.0,0.0,0.0,0.0,0.0,0.0,0.0,0.0,0.0,-0.21358974277973175,0.2853846251964569,10.010000228881836,0.0,0.0,0.0,0.0,0.0,0.0,0.0,0.0,0.0
1646351046.1136503,8464,1646351046,113324448,,0.0,0.0,0.0,0.0,0.0,0.0,0.0,0.0,0.0,0.0,0.0,0.0,0.0,0.04139474034309387,0.2227572798728943,-0.012308684177696705,0.0,0.0,0.0,0.0,0.0,0.0,0.0,0.0,0.0,-0.4774359166622162,-0.15076923370361328,9.579231262207031,0.0,0.0,0.0,0.0,0.0,0.0,0.0,0.0,0.0
1646351046.1159353,8465,1646351046,115641674,,0.0,0.0,0.0,0.0,0.0,0.0,0.0,0.0,0.0,0.0,0.0,0.0,0.0,0.07761373370885849,0.2227572798728943,-0.018700269982218742,0.0,0.0,0.0,0.0,0.0,0.0,0.0,0.0,0.0,-0.5564102530479431,-0.23512820899486542,9.45718002319336,0.0,0.0,0.0,0.0,0.0,0.0,0.0,0.0,0.0
1646351046.1190774,8466,1646351046,117850406,,0.0,0.0,0.0,0.0,0.0,0.0,0.0,0.0,0.0,0.0,0.0,0.0,0.0,0.03606841340661049,0.23980151116847992,-0.028287649154663086,0.0,0.0,0.0,0.0,0.0,0.0,0.0,0.0,0.0,-0.3805128335952759,0.3410256505012512,10.266667366027832,0.0,0.0,0.0,0.0,0.0,0.0,0.0,0.0,0.0
1646351046.1202826,8467,1646351046,120074055,,0.0,0.0,0.0,0.0,0.0,0.0,0.0,0.0,0.0,0.0,0.0,0.0,0.0,0.050982117652893066,0.23980151116847992,-0.011243419721722603,0.0,0.0,0.0,0.0,0.0,0.0,0.0,0.0,0.0,0.05743589997291565,-0.7179487347602844,9.327948570251465,0.0,0.0,0.0,0.0,0.0,0.0,0.0,0.0,0.0
1646351046.122641,8468,1646351046,122304296,,0.0,0.0,0.0,0.0,0.0,0.0,0.0,0.0,0.0,0.0,0.0,0.0,0.0,0.06483055651187897,0.22062675654888153,-0.024026591330766678,0.0,0.0,0.0,0.0,0.0,0.0,0.0,0.0,0.0,-0.5833333134651184,-0.3589743673801422,10.099743843078613,0.0,0.0,0.0,0.0,0.0,0.0,0.0,0.0,0.0
1646351046.1249442,8469,1646351046,124600610,,0.0,0.0,0.0,0.0,0.0,0.0,0.0,0.0,0.0,0.0,0.0,0.0,0.0,0.025415774434804916,0.24725836515426636,-0.0037865692283958197,0.0,0.0,0.0,0.0,0.0,0.0,0.0,0.0,0.0,-0.07538461685180664,-0.38410258293151855,9.984871864318848,0.0,0.0,0.0,0.0,0.0,0.0,0.0,0.0,0.0
1646351046.1271358,8470,1646351046,126794595,,0.0,0.0,0.0,0.0,0.0,0.0,0.0,0.0,0.0,0.0,0.0,0.0,0.0,0.014763129875063896,0.24299730360507965,-0.02296132780611515,0.0,0.0,0.0,0.0,0.0,0.0,0.0,0.0,0.0,-0.5923076868057251,-0.05384615436196327,10.686666488647461,0.0,0.0,0.0,0.0,0.0,0.0,0.0,0.0,0.0
1646351046.1294022,8471,1646351046,129071467,,0.0,0.0,0.0,0.0,0.0,0.0,0.0,0.0,0.0,0.0,0.0,0.0,0.0,0.01689365692436695,0.2366057187318802,-0.011243419721722603,0.0,0.0,0.0,0.0,0.0,0.0,0.0,0.0,0.0,-0.7089743614196777,-0.3266666829586029,9.724615097045898,0.0,0.0,0.0,0.0,0.0,0.0,0.0,0.0,0.0
1646351046.1315498,8472,1646351046,131289506,,0.0,0.0,0.0,0.0,0.0,0.0,0.0,0.0,0.0,0.0,0.0,0.0,0.0,-0.010803216136991978,0.24832361936569214,-0.016569742932915688,0.0,0.0,0.0,0.0,0.0,0.0,0.0,0.0,0.0,-0.21000000834465027,-0.18487180769443512,9.977692604064941,0.0,0.0,0.0,0.0,0.0,0.0,0.0,0.0,0.0
1646351046.1339502,8473,1646351046,133515511,,0.0,0.0,0.0,0.0,0.0,0.0,0.0,0.0,0.0,0.0,0.0,0.0,0.0,-0.00015057262498885393,0.22808359563350677,-0.006982361897826195,0.0,0.0,0.0,0.0,0.0,0.0,0.0,0.0,0.0,-0.5007692575454712,-0.24948717653751373,10.022564888000488,0.0,0.0,0.0,0.0,0.0,0.0,0.0,0.0,0.0
1646351046.13616,8474,1646351046,135779500,,0.0,0.0,0.0,0.0,0.0,0.0,0.0,0.0,0.0,0.0,0.0,0.0,0.0,-0.042761147022247314,0.22488780319690704,0.0036702812649309635,0.0,0.0,0.0,0.0,0.0,0.0,0.0,0.0,0.0,-0.3571794927120209,-0.09871795028448105,9.575640678405762,0.0,0.0,0.0,0.0,0.0,0.0,0.0,0.0,0.0
1646351046.1383362,8475,1646351046,137971980,,0.0,0.0,0.0,0.0,0.0,0.0,0.0,0.0,0.0,0.0,0.0,0.0,0.0,-0.018260065466165543,0.22595307230949402,-0.005917098838835955,0.0,0.0,0.0,0.0,0.0,0.0,0.0,0.0,0.0,-0.24948717653751373,0.28358975052833557,10.001025199890137,0.0,0.0,0.0,0.0,0.0,0.0,0.0,0.0,0.0
1646351046.140595,8476,1646351046,140296489,,0.0,0.0,0.0,0.0,0.0,0.0,0.0,0.0,0.0,0.0,0.0,0.0,0.0,-0.03317376971244812,0.24406257271766663,0.0015397525858134031,0.0,0.0,0.0,0.0,0.0,0.0,0.0,0.0,0.0,-0.45769232511520386,0.1974359005689621,10.031538009643555,0.0,0.0,0.0,0.0,0.0,0.0,0.0,0.0,0.0
1646351046.1428413,8477,1646351046,142537029,,0.0,0.0,0.0,0.0,0.0,0.0,0.0,0.0,0.0,0.0,0.0,0.0,0.0,-0.018260065466165543,0.2216920107603073,0.012192396447062492,0.0,0.0,0.0,0.0,0.0,0.0,0.0,0.0,0.0,-0.34282052516937256,-0.2153846174478531,9.997435569763184,0.0,0.0,0.0,0.0,0.0,0.0,0.0,0.0,0.0
1646351046.1450107,8478,1646351046,144713609,,0.0,0.0,0.0,0.0,0.0,0.0,0.0,0.0,0.0,0.0,0.0,0.0,0.0,-0.050217997282743454,0.23767098784446716,-0.004851834382861853,0.0,0.0,0.0,0.0,0.0,0.0,0.0,0.0,0.0,-0.1382051259279251,0.33384618163108826,10.275640487670898,0.0,0.0,0.0,0.0,0.0,0.0,0.0,0.0,0.0
1646351046.1473405,8479,1646351046,146924262,,0.0,0.0,0.0,0.0,0.0,0.0,0.0,0.0,0.0,0.0,0.0,0.0,0.0,-0.031043240800499916,0.21103936433792114,0.030301889404654503,0.0,0.0,0.0,0.0,0.0,0.0,0.0,0.0,0.0,0.03769230842590332,0.25487178564071655,9.812564849853516,0.0,0.0,0.0,0.0,0.0,0.0,0.0,0.0,0.0
1646351046.1494768,8480,1646351046,149201844,,0.0,0.0,0.0,0.0,0.0,0.0,0.0,0.0,0.0,0.0,0.0,0.0,0.0,-0.018260065466165543,0.23021413385868073,0.0047355457209050655,0.0,0.0,0.0,0.0,0.0,0.0,0.0,0.0,0.0,-0.03948718309402466,0.46666666865348816,10.015384674072266,0.0,0.0,0.0,0.0,0.0,0.0,0.0,0.0,0.0
1646351046.151709,8481,1646351046,151414213,,0.0,0.0,0.0,0.0,0.0,0.0,0.0,0.0,0.0,0.0,0.0,0.0,0.0,-0.023586388677358627,0.227018341422081,0.02391030639410019,0.0,0.0,0.0,0.0,0.0,0.0,0.0,0.0,0.0,0.00897435937076807,-0.18666666746139526,10.022564888000488,0.0,0.0,0.0,0.0,0.0,0.0,0.0,0.0,0.0
1646351046.1544478,8482,1646351046,153629774,,0.0,0.0,0.0,0.0,0.0,0.0,0.0,0.0,0.0,0.0,0.0,0.0,0.0,-0.0342390350997448,0.21530042588710785,0.02710609696805477,0.0,0.0,0.0,0.0,0.0,0.0,0.0,0.0,0.0,-0.2943589687347412,0.3912820518016815,9.40333366394043,0.0,0.0,0.0,0.0,0.0,0.0,0.0,0.0,0.0
1646351046.156203,8483,1646351046,155879360,,0.0,0.0,0.0,0.0,0.0,0.0,0.0,0.0,0.0,0.0,0.0,0.0,0.0,0.025415774434804916,0.21636569499969482,0.02391030639410019,0.0,0.0,0.0,0.0,0.0,0.0,0.0,0.0,0.0,-0.4128205180168152,0.15076923370361328,9.728204727172852,0.0,0.0,0.0,0.0,0.0,0.0,0.0,0.0,0.0
1646351046.15848,8484,1646351046,158148015,,0.0,0.0,0.0,0.0,0.0,0.0,0.0,0.0,0.0,0.0,0.0,0.0,0.0,-0.0012158364988863468,0.23021413385868073,0.05267244204878807,0.0,0.0,0.0,0.0,0.0,0.0,0.0,0.0,0.0,-0.47564104199409485,-0.08076923340559006,9.405128479003906,0.0,0.0,0.0,0.0,0.0,0.0,0.0,0.0,0.0
1646351046.1617713,8485,1646351046,160400961,,0.0,0.0,0.0,0.0,0.0,0.0,0.0,0.0,0.0,0.0,0.0,0.0,0.0,0.019024187698960304,0.2089088410139084,0.0036702812649309635,0.0,0.0,0.0,0.0,0.0,0.0,0.0,0.0,0.0,-0.20461538434028625,0.22794872522354126,10.004615783691406,0.0,0.0,0.0,0.0,0.0,0.0,0.0,0.0,0.0
1646351046.1627936,8486,1646351046,162586127,,0.0,0.0,0.0,0.0,0.0,0.0,0.0,0.0,0.0,0.0,0.0,0.0,0.0,0.022219980135560036,0.22595307230949402,0.054802969098091125,0.0,0.0,0.0,0.0,0.0,0.0,0.0,0.0,0.0,-0.5976923108100891,-0.11128205060958862,9.39794921875,0.0,0.0,0.0,0.0,0.0,0.0,0.0,0.0,0.0
1646351046.1651442,8487,1646351046,164762613,,0.0,0.0,0.0,0.0,0.0,0.0,0.0,0.0,0.0,0.0,0.0,0.0,0.0,0.023285245522856712,0.1993214637041092,0.014322925359010696,0.0,0.0,0.0,0.0,0.0,0.0,0.0,0.0,0.0,-0.5294871926307678,0.11307692527770996,9.957948684692383,0.0,0.0,0.0,0.0,0.0,0.0,0.0,0.0,0.0
1646351046.1673458,8488,1646351046,166949378,,0.0,0.0,0.0,0.0,0.0,0.0,0.0,0.0,0.0,0.0,0.0,0.0,0.0,0.03819894418120384,0.22062675654888153,0.02710609696805477,0.0,0.0,0.0,0.0,0.0,0.0,0.0,0.0,0.0,-0.6246154308319092,-0.3069230914115906,9.568461418151855,0.0,0.0,0.0,0.0,0.0,0.0,0.0,0.0,0.0
1646351046.1694977,8489,1646351046,169180311,,0.0,0.0,0.0,0.0,0.0,0.0,0.0,0.0,0.0,0.0,0.0,0.0,0.0,0.04991685226559639,0.21849621832370758,0.05054191127419472,0.0,0.0,0.0,0.0,0.0,0.0,0.0,0.0,0.0,-0.45769232511520386,-0.01794871874153614,9.539743423461914,0.0,0.0,0.0,0.0,0.0,0.0,0.0,0.0,0.0
1646351046.171712,8490,1646351046,171376223,,0.0,0.0,0.0,0.0,0.0,0.0,0.0,0.0,0.0,0.0,0.0,0.0,0.0,0.04246000573039055,0.21210463345050812,0.033497683703899384,0.0,0.0,0.0,0.0,0.0,0.0,0.0,0.0,0.0,-0.1328205168247223,-0.03948718309402466,9.764102935791016,0.0,0.0,0.0,0.0,0.0,0.0,0.0,0.0,0.0
1646351046.1739914,8491,1646351046,173562163,,0.0,0.0,0.0,0.0,0.0,0.0,0.0,0.0,0.0,0.0,0.0,0.0,0.0,0.04672106355428696,0.20038673281669617,0.02710609696805477,0.0,0.0,0.0,0.0,0.0,0.0,0.0,0.0,0.0,-0.4092307686805725,-0.012564103119075298,10.049487113952637,0.0,0.0,0.0,0.0,0.0,0.0,0.0,0.0,0.0
1646351046.1761603,8492,1646351046,175751809,,0.0,0.0,0.0,0.0,0.0,0.0,0.0,0.0,0.0,0.0,0.0,0.0,0.0,0.05737370252609253,0.20038673281669617,0.01112713199108839,0.0,0.0,0.0,0.0,0.0,0.0,0.0,0.0,0.0,-0.5743589997291565,-0.19564102590084076,9.184359550476074,0.0,0.0,0.0,0.0,0.0,0.0,0.0,0.0,0.0
1646351046.1783528,8493,1646351046,178061274,,0.0,0.0,0.0,0.0,0.0,0.0,0.0,0.0,0.0,0.0,0.0,0.0,0.0,0.03500314801931381,0.22382254898548126,0.04521559551358223,0.0,0.0,0.0,0.0,0.0,0.0,0.0,0.0,0.0,-0.1705128252506256,-0.3482051491737366,9.91128158569336,0.0,0.0,0.0,0.0,0.0,0.0,0.0,0.0,0.0
1646351046.1806574,8494,1646351046,180278760,,0.0,0.0,0.0,0.0,0.0,0.0,0.0,0.0,0.0,0.0,0.0,0.0,0.0,0.03926420584321022,0.20251725614070892,0.022845041006803513,0.0,0.0,0.0,0.0,0.0,0.0,0.0,0.0,0.0,-0.4505128264427185,-0.21897436678409576,10.144615173339844,0.0,0.0,0.0,0.0,0.0,0.0,0.0,0.0,0.0
1646351046.182807,8495,1646351046,182473984,,0.0,0.0,0.0,0.0,0.0,0.0,0.0,0.0,0.0,0.0,0.0,0.0,0.0,0.03926420584321022,0.2216920107603073,0.033497683703899384,0.0,0.0,0.0,0.0,0.0,0.0,0.0,0.0,0.0,-0.5869230628013611,-0.4953846335411072,9.726409912109375,0.0,0.0,0.0,0.0,0.0,0.0,0.0,0.0,0.0
1646351046.1849935,8496,1646351046,184665139,,0.0,0.0,0.0,0.0,0.0,0.0,0.0,0.0,0.0,0.0,0.0,0.0,0.0,0.03606841340661049,0.16842880845069885,-0.005917098838835955,0.0,0.0,0.0,0.0,0.0,0.0,0.0,0.0,0.0,-0.5223076939582825,0.005384615622460842,10.377948760986328,0.0,0.0,0.0,0.0,0.0,0.0,0.0,0.0,0.0
1646351046.1873622,8497,1646351046,186921514,,0.0,0.0,0.0,0.0,0.0,0.0,0.0,0.0,0.0,0.0,0.0,0.0,0.0,0.01689365692436695,0.16736353933811188,0.012192396447062492,0.0,0.0,0.0,0.0,0.0,0.0,0.0,0.0,0.0,-0.3715384900569916,-0.7107692360877991,10.114103317260742,0.0,0.0,0.0,0.0,0.0,0.0,0.0,0.0,0.0
1646351046.1894884,8498,1646351046,189205063,,0.0,0.0,0.0,0.0,0.0,0.0,0.0,0.0,0.0,0.0,0.0,0.0,0.0,0.009436807595193386,0.16842880845069885,0.02391030639410019,0.0,0.0,0.0,0.0,0.0,0.0,0.0,0.0,0.0,-0.39846155047416687,-0.47564104199409485,10.024358749389648,0.0,0.0,0.0,0.0,0.0,0.0,0.0,0.0,0.0
1646351046.1918485,8499,1646351046,191453576,,0.0,0.0,0.0,0.0,0.0,0.0,0.0,0.0,0.0,0.0,0.0,0.0,0.0,-0.01506427489221096,0.1620372235774994,0.02071451209485531,0.0,0.0,0.0,0.0,0.0,0.0,0.0,0.0,0.0,-0.5330769419670105,0.07717949151992798,10.157179832458496,0.0,0.0,0.0,0.0,0.0,0.0,0.0,0.0,0.0
1646351046.1940005,8500,1646351046,193682297,,0.0,0.0,0.0,0.0,0.0,0.0,0.0,0.0,0.0,0.0,0.0,0.0,0.0,0.013697865419089794,0.15884143114089966,0.0026050168089568615,0.0,0.0,0.0,0.0,0.0,0.0,0.0,0.0,0.0,-0.4128205180168152,-0.31589746475219727,10.211026191711426,0.0,0.0,0.0,0.0,0.0,0.0,0.0,0.0,0.0
1646351046.1962533,8501,1646351046,195928428,,0.0,0.0,0.0,0.0,0.0,0.0,0.0,0.0,0.0,0.0,0.0,0.0,0.0,-0.017194801941514015,0.15031930804252625,-0.0037865692283958197,0.0,0.0,0.0,0.0,0.0,0.0,0.0,0.0,0.0,-0.6012820601463318,-0.16153846681118011,10.30435848236084,0.0,0.0,0.0,0.0,0.0,0.0,0.0,0.0,0.0
1646351046.1983895,8502,1646351046,198133259,,0.0,0.0,0.0,0.0,0.0,0.0,0.0,0.0,0.0,0.0,0.0,0.0,0.0,-0.027847446501255035,0.1386014074087143,0.024975569918751717,0.0,0.0,0.0,0.0,0.0,0.0,0.0,0.0,0.0,-0.43435898423194885,-0.2566666603088379,10.018974304199219,0.0,0.0,0.0,0.0,0.0,0.0,0.0,0.0,0.0
1646351046.201061,8503,1646351046,200318711,,0.0,0.0,0.0,0.0,0.0,0.0,0.0,0.0,0.0,0.0,0.0,0.0,0.0,-0.024651652202010155,0.14073193073272705,-0.0016560404328629375,0.0,0.0,0.0,0.0,0.0,0.0,0.0,0.0,0.0,-0.5851281881332397,0.33384618163108826,10.25948715209961,0.0,0.0,0.0,0.0,0.0,0.0,0.0,0.0,0.0
1646351046.2036347,8504,1646351046,202516263,,0.0,0.0,0.0,0.0,0.0,0.0,0.0,0.0,0.0,0.0,0.0,0.0,0.0,-0.024651652202010155,0.13114455342292786,0.022845041006803513,0.0,0.0,0.0,0.0,0.0,0.0,0.0,0.0,0.0,-0.3571794927120209,-0.21897436678409576,10.065641403198242,0.0,0.0,0.0,0.0,0.0,0.0,0.0,0.0,0.0
1646351046.204899,8505,1646351046,204704026,,0.0,0.0,0.0,0.0,0.0,0.0,0.0,0.0,0.0,0.0,0.0,0.0,0.0,-0.03743482753634453,0.11836138367652893,0.0036702812649309635,0.0,0.0,0.0,0.0,0.0,0.0,0.0,0.0,0.0,-0.47025641798973083,0.17769230902194977,10.315128326416016,0.0,0.0,0.0,0.0,0.0,0.0,0.0,0.0,0.0
1646351046.2071598,8506,1646351046,206877015,,0.0,0.0,0.0,0.0,0.0,0.0,0.0,0.0,0.0,0.0,0.0,0.0,0.0,-0.032108504325151443,0.1151655912399292,-0.014439214020967484,0.0,0.0,0.0,0.0,0.0,0.0,0.0,0.0,0.0,-0.5366666913032532,-0.05564102530479431,9.848461151123047,0.0,0.0,0.0,0.0,0.0,0.0,0.0,0.0,0.0
1646351046.2095144,8507,1646351046,209135603,,0.0,0.0,0.0,0.0,0.0,0.0,0.0,0.0,0.0,0.0,0.0,0.0,0.0,-0.01506427489221096,0.13220982253551483,0.007931338623166084,0.0,0.0,0.0,0.0,0.0,0.0,0.0,0.0,0.0,-0.746666669845581,-0.1651282161474228,9.60615348815918,0.0,0.0,0.0,0.0,0.0,0.0,0.0,0.0,0.0
1646351046.211737,8508,1646351046,211327248,,0.0,0.0,0.0,0.0,0.0,0.0,0.0,0.0,0.0,0.0,0.0,0.0,0.0,0.004110485315322876,0.12581823766231537,0.012192396447062492,0.0,0.0,0.0,0.0,0.0,0.0,0.0,0.0,0.0,-0.6300000548362732,0.2925640940666199,10.0853853225708,0.0,0.0,0.0,0.0,0.0,0.0,0.0,0.0,0.0
1646351046.2137415,8509,1646351046,213552604,,0.0,0.0,0.0,0.0,0.0,0.0,0.0,0.0,0.0,0.0,0.0,0.0,0.0,-0.02571691758930683,0.10451294481754303,0.0015397525858134031,0.0,0.0,0.0,0.0,0.0,0.0,0.0,0.0,0.0,-0.823846161365509,-0.06461538374423981,9.543333053588867,0.0,0.0,0.0,0.0,0.0,0.0,0.0,0.0,0.0
1646351046.216218,8510,1646351046,215807910,,0.0,0.0,0.0,0.0,0.0,0.0,0.0,0.0,0.0,0.0,0.0,0.0,0.0,0.008371543139219284,0.10770873725414276,-0.0101781552657485,0.0,0.0,0.0,0.0,0.0,0.0,0.0,0.0,0.0,-0.6300000548362732,0.2530769407749176,10.011795043945312,0.0,0.0,0.0,0.0,0.0,0.0,0.0,0.0,0.0
1646351046.2184315,8511,1646351046,218077103,,0.0,0.0,0.0,0.0,0.0,0.0,0.0,0.0,0.0,0.0,0.0,0.0,0.0,0.02115471661090851,0.10557820647954941,0.013257660903036594,0.0,0.0,0.0,0.0,0.0,0.0,0.0,0.0,0.0,-0.7323077321052551,-0.15974359214305878,9.656410217285156,0.0,0.0,0.0,0.0,0.0,0.0,0.0,0.0,0.0
1646351046.220677,8512,1646351046,220357098,,0.0,0.0,0.0,0.0,0.0,0.0,0.0,0.0,0.0,0.0,0.0,0.0,0.0,0.02008945122361183,0.10451294481754303,-0.0037865692283958197,0.0,0.0,0.0,0.0,0.0,0.0,0.0,0.0,0.0,-0.36974361538887024,0.25128206610679626,9.90410327911377,0.0,0.0,0.0,0.0,0.0,0.0,0.0,0.0,0.0
1646351046.222828,8513,1646351046,222547620,,0.0,0.0,0.0,0.0,0.0,0.0,0.0,0.0,0.0,0.0,0.0,0.0,0.0,0.02754630148410797,0.12581823766231537,0.0164534542709589,0.0,0.0,0.0,0.0,0.0,0.0,0.0,0.0,0.0,-0.4648717939853668,0.007179487496614456,9.801794052124023,0.0,0.0,0.0,0.0,0.0,0.0,0.0,0.0,0.0
1646351046.225224,8514,1646351046,224805693,,0.0,0.0,0.0,0.0,0.0,0.0,0.0,0.0,0.0,0.0,0.0,0.0,0.0,0.04991685226559639,0.08533818274736404,0.0015397525858134031,0.0,0.0,0.0,0.0,0.0,0.0,0.0,0.0,0.0,-0.4325641095638275,0.026923077180981636,9.922051429748535,0.0,0.0,0.0,0.0,0.0,0.0,0.0,0.0,0.0
1646351046.22737,8515,1646351046,227068861,,0.0,0.0,0.0,0.0,0.0,0.0,0.0,0.0,0.0,0.0,0.0,0.0,0.0,0.05311264470219612,0.08320765197277069,-0.025091856718063354,0.0,0.0,0.0,0.0,0.0,0.0,0.0,0.0,0.0,-0.4882051348686218,0.10948718339204788,10.115897178649902,0.0,0.0,0.0,0.0,0.0,0.0,0.0,0.0,0.0
1646351046.2295468,8516,1646351046,229248299,,0.0,0.0,0.0,0.0,0.0,0.0,0.0,0.0,0.0,0.0,0.0,0.0,0.0,0.05311264470219612,0.06083710119128227,-0.026157120242714882,0.0,0.0,0.0,0.0,0.0,0.0,0.0,0.0,0.0,-0.746666669845581,-0.22435897588729858,9.740769386291504,0.0,0.0,0.0,0.0,0.0,0.0,0.0,0.0,0.0
1646351046.2318974,8517,1646351046,231452702,,0.0,0.0,0.0,0.0,0.0,0.0,0.0,0.0,0.0,0.0,0.0,0.0,0.0,0.0541779100894928,0.06829395145177841,-0.017635004594922066,0.0,0.0,0.0,0.0,0.0,0.0,0.0,0.0,0.0,-0.3571794927120209,0.03948718309402466,10.067436218261719,0.0,0.0,0.0,0.0,0.0,0.0,0.0,0.0,0.0
1646351046.2342615,8518,1646351046,233814187,,0.0,0.0,0.0,0.0,0.0,0.0,0.0,0.0,0.0,0.0,0.0,0.0,0.0,0.025415774434804916,0.06296762824058533,-0.012308684177696705,0.0,0.0,0.0,0.0,0.0,0.0,0.0,0.0,0.0,-0.7807692289352417,-0.34282052516937256,9.681538581848145,0.0,0.0,0.0,0.0,0.0,0.0,0.0,0.0,0.0
1646351046.2363834,8519,1646351046,236034197,,0.0,0.0,0.0,0.0,0.0,0.0,0.0,0.0,0.0,0.0,0.0,0.0,0.0,0.05950423330068588,0.06509815901517868,-0.03787503018975258,0.0,0.0,0.0,0.0,0.0,0.0,0.0,0.0,0.0,-0.5923076868057251,0.08615384995937347,10.09256362915039,0.0,0.0,0.0,0.0,0.0,0.0,0.0,0.0,0.0
1646351046.2385368,8520,1646351046,238232092,,0.0,0.0,0.0,0.0,0.0,0.0,0.0,0.0,0.0,0.0,0.0,0.0,0.0,0.040329474955797195,0.04592340067028999,-0.021896062418818474,0.0,0.0,0.0,0.0,0.0,0.0,0.0,0.0,0.0,-0.5276923179626465,-0.1884615421295166,9.658205032348633,0.0,0.0,0.0,0.0,0.0,0.0,0.0,0.0,0.0
1646351046.2408037,8521,1646351046,240465675,,0.0,0.0,0.0,0.0,0.0,0.0,0.0,0.0,0.0,0.0,0.0,0.0,0.0,0.022219980135560036,0.056576043367385864,0.0015397525858134031,0.0,0.0,0.0,0.0,0.0,0.0,0.0,0.0,0.0,-0.6084615588188171,-0.2207692414522171,9.717435836791992,0.0,0.0,0.0,0.0,0.0,0.0,0.0,0.0,0.0
1646351046.243016,8522,1646351046,242711608,,0.0,0.0,0.0,0.0,0.0,0.0,0.0,0.0,0.0,0.0,0.0,0.0,0.0,0.029676830396056175,0.06616342067718506,-0.043201349675655365,0.0,0.0,0.0,0.0,0.0,0.0,0.0,0.0,0.0,-0.6425641179084778,-0.00897435937076807,9.807180404663086,0.0,0.0,0.0,0.0,0.0,0.0,0.0,0.0,0.0
1646351046.2464187,8523,1646351046,244934279,,0.0,0.0,0.0,0.0,0.0,0.0,0.0,0.0,0.0,0.0,0.0,0.0,0.0,0.01689365692436695,0.05338025465607643,-0.029352914541959763,0.0,0.0,0.0,0.0,0.0,0.0,0.0,0.0,0.0,-0.6425641179084778,-0.13461539149284363,9.64384651184082,0.0,0.0,0.0,0.0,0.0,0.0,0.0,0.0,0.0
1646351046.247858,8524,1646351046,247659130,,0.0,0.0,0.0,0.0,0.0,0.0,0.0,0.0,0.0,0.0,0.0,0.0,0.0,-0.0012158364988863468,0.055510785430669785,-0.029352914541959763,0.0,0.0,0.0,0.0,0.0,0.0,0.0,0.0,0.0,-0.7017949223518372,0.17589744925498962,9.891538619995117,0.0,0.0,0.0,0.0,0.0,0.0,0.0,0.0,0.0
1646351046.2501605,8525,1646351046,249855041,,0.0,0.0,0.0,0.0,0.0,0.0,0.0,0.0,0.0,0.0,0.0,0.0,0.0,0.010502072051167488,0.06616342067718506,-0.018700269982218742,0.0,0.0,0.0,0.0,0.0,0.0,0.0,0.0,0.0,-0.5330769419670105,-0.2620512843132019,9.629487037658691,0.0,0.0,0.0,0.0,0.0,0.0,0.0,0.0,0.0
1646351046.2525988,8526,1646351046,252103510,,0.0,0.0,0.0,0.0,0.0,0.0,0.0,0.0,0.0,0.0,0.0,0.0,0.0,-0.002281100954860449,0.08001185953617096,-0.02296132780611515,0.0,0.0,0.0,0.0,0.0,0.0,0.0,0.0,0.0,-0.7502564191818237,-0.17589744925498962,9.665384292602539,0.0,0.0,0.0,0.0,0.0,0.0,0.0,0.0,0.0
1646351046.2552342,8527,1646351046,254358048,,0.0,0.0,0.0,0.0,0.0,0.0,0.0,0.0,0.0,0.0,0.0,0.0,0.0,-0.008672687225043774,0.07468553632497787,-0.04213608428835869,0.0,0.0,0.0,0.0,0.0,0.0,0.0,0.0,0.0,-0.8166666626930237,0.15256410837173462,9.834102630615234,0.0,0.0,0.0,0.0,0.0,0.0,0.0,0.0,0.0
1646351046.257055,8528,1646351046,256613160,,0.0,0.0,0.0,0.0,0.0,0.0,0.0,0.0,0.0,0.0,0.0,0.0,0.0,-0.007607422769069672,0.059771839529275894,-0.014439214020967484,0.0,0.0,0.0,0.0,0.0,0.0,0.0,0.0,0.0,-0.5761538743972778,-0.07717949151992798,9.744359016418457,0.0,0.0,0.0,0.0,0.0,0.0,0.0,0.0,0.0
1646351046.2592354,8529,1646351046,258821823,,0.0,0.0,0.0,0.0,0.0,0.0,0.0,0.0,0.0,0.0,0.0,0.0,0.0,-0.00654215831309557,0.07148974388837814,-0.06663717329502106,0.0,0.0,0.0,0.0,0.0,0.0,0.0,0.0,0.0,-0.6766666769981384,0.3392307758331299,9.814358711242676,0.0,0.0,0.0,0.0,0.0,0.0,0.0,0.0,0.0
1646351046.2614176,8530,1646351046,261097301,,0.0,0.0,0.0,0.0,0.0,0.0,0.0,0.0,0.0,0.0,0.0,0.0,0.0,-0.031043240800499916,0.07468553632497787,0.0015397525858134031,0.0,0.0,0.0,0.0,0.0,0.0,0.0,0.0,0.0,-0.5761538743972778,0.03589743748307228,9.807180404663086,0.0,0.0,0.0,0.0,0.0,0.0,0.0,0.0,0.0
1646351046.2636695,8531,1646351046,263335117,,0.0,0.0,0.0,0.0,0.0,0.0,0.0,0.0,0.0,0.0,0.0,0.0,0.0,-0.013999010436236858,0.07468553632497787,-0.04959293454885483,0.0,0.0,0.0,0.0,0.0,0.0,0.0,0.0,0.0,-0.5187179446220398,0.4917948842048645,9.952564239501953,0.0,0.0,0.0,0.0,0.0,0.0,0.0,0.0,0.0
1646351046.2657847,8532,1646351046,265517203,,0.0,0.0,0.0,0.0,0.0,0.0,0.0,0.0,0.0,0.0,0.0,0.0,0.0,-0.04702220484614372,0.07042448222637177,-0.01976553350687027,0.0,0.0,0.0,0.0,0.0,0.0,0.0,0.0,0.0,-0.39846155047416687,-0.025128206238150597,9.765897750854492,0.0,0.0,0.0,0.0,0.0,0.0,0.0,0.0,0.0
1646351046.268031,8533,1646351046,267663466,,0.0,0.0,0.0,0.0,0.0,0.0,0.0,0.0,0.0,0.0,0.0,0.0,0.0,-0.027847446501255035,0.0874687135219574,-0.03254871070384979,0.0,0.0,0.0,0.0,0.0,0.0,0.0,0.0,0.0,-0.4774359166622162,0.2764102518558502,9.837692260742188,0.0,0.0,0.0,0.0,0.0,0.0,0.0,0.0,0.0
1646351046.2706487,8534,1646351046,269862036,,0.0,0.0,0.0,0.0,0.0,0.0,0.0,0.0,0.0,0.0,0.0,0.0,0.0,-0.023586388677358627,0.08853397518396378,-0.03467923775315285,0.0,0.0,0.0,0.0,0.0,0.0,0.0,0.0,0.0,-0.4594871997833252,0.1705128252506256,9.613333702087402,0.0,0.0,0.0,0.0,0.0,0.0,0.0,0.0,0.0
1646351046.2723932,8535,1646351046,272057649,,0.0,0.0,0.0,0.0,0.0,0.0,0.0,0.0,0.0,0.0,0.0,0.0,0.0,-0.03743482753634453,0.05870657414197922,-0.014439214020967484,0.0,0.0,0.0,0.0,0.0,0.0,0.0,0.0,0.0,-0.5241025686264038,0.0412820540368557,9.54692268371582,0.0,0.0,0.0,0.0,0.0,0.0,0.0,0.0,0.0
1646351046.2745836,8536,1646351046,274263164,,0.0,0.0,0.0,0.0,0.0,0.0,0.0,0.0,0.0,0.0,0.0,0.0,0.0,-0.008672687225043774,0.09066450595855713,-0.046397142112255096,0.0,0.0,0.0,0.0,0.0,0.0,0.0,0.0,0.0,-0.5994871854782104,0.43974360823631287,9.877179145812988,0.0,0.0,0.0,0.0,0.0,0.0,0.0,0.0,0.0
1646351046.2767775,8537,1646351046,276457439,,0.0,0.0,0.0,0.0,0.0,0.0,0.0,0.0,0.0,0.0,0.0,0.0,0.0,-0.017194801941514015,0.09066450595855713,-0.017635004594922066,0.0,0.0,0.0,0.0,0.0,0.0,0.0,0.0,0.0,-0.8094872236251831,-0.003589743748307228,9.604358673095703,0.0,0.0,0.0,0.0,0.0,0.0,0.0,0.0,0.0
1646351046.278973,8538,1646351046,278673425,,0.0,0.0,0.0,0.0,0.0,0.0,0.0,0.0,0.0,0.0,0.0,0.0,0.0,-0.016129538416862488,0.08320765197277069,-0.02296132780611515,0.0,0.0,0.0,0.0,0.0,0.0,0.0,0.0,0.0,-0.6030769348144531,0.31948718428611755,9.993846893310547,0.0,0.0,0.0,0.0,0.0,0.0,0.0,0.0,0.0
1646351046.2814162,8539,1646351046,280954652,,0.0,0.0,0.0,0.0,0.0,0.0,0.0,0.0,0.0,0.0,0.0,0.0,0.0,0.006241013761609793,0.08853397518396378,-0.0016560404328629375,0.0,0.0,0.0,0.0,0.0,0.0,0.0,0.0,0.0,-0.7269231081008911,0.0412820540368557,9.64564037322998,0.0,0.0,0.0,0.0,0.0,0.0,0.0,0.0,0.0
1646351046.2847164,8540,1646351046,283169658,,0.0,0.0,0.0,0.0,0.0,0.0,0.0,0.0,0.0,0.0,0.0,0.0,0.0,0.005175749771296978,0.10344768315553665,-0.0016560404328629375,0.0,0.0,0.0,0.0,0.0,0.0,0.0,0.0,0.0,-0.44871795177459717,0.26025640964508057,9.771282196044922,0.0,0.0,0.0,0.0,0.0,0.0,0.0,0.0,0.0
1646351046.28683,8541,1646351046,285382936,,0.0,0.0,0.0,0.0,0.0,0.0,0.0,0.0,0.0,0.0,0.0,0.0,0.0,0.013697865419089794,0.08640345185995102,-0.014439214020967484,0.0,0.0,0.0,0.0,0.0,0.0,0.0,0.0,0.0,-0.49897435307502747,0.1561538577079773,9.771282196044922,0.0,0.0,0.0,0.0,0.0,0.0,0.0,0.0,0.0
1646351046.2878964,8542,1646351046,287571426,,0.0,0.0,0.0,0.0,0.0,0.0,0.0,0.0,0.0,0.0,0.0,0.0,0.0,0.029676830396056175,0.10025188326835632,-0.026157120242714882,0.0,0.0,0.0,0.0,0.0,0.0,0.0,0.0,0.0,-0.4953846335411072,0.3302564322948456,9.74256420135498,0.0,0.0,0.0,0.0,0.0,0.0,0.0,0.0,0.0
1646351046.2900462,8543,1646351046,289742292,,0.0,0.0,0.0,0.0,0.0,0.0,0.0,0.0,0.0,0.0,0.0,0.0,0.0,0.030742093920707703,0.09279503673315048,-0.03254871070384979,0.0,0.0,0.0,0.0,0.0,0.0,0.0,0.0,0.0,-0.2889743745326996,0.0,9.821538925170898,0.0,0.0,0.0,0.0,0.0,0.0,0.0,0.0,0.0
1646351046.2922034,8544,1646351046,291928084,,0.0,0.0,0.0,0.0,0.0,0.0,0.0,0.0,0.0,0.0,0.0,0.0,0.0,0.03287262097001076,0.1332750767469406,0.022845041006803513,0.0,0.0,0.0,0.0,0.0,0.0,0.0,0.0,0.0,-0.44333335757255554,0.29076921939849854,10.006409645080566,0.0,0.0,0.0,0.0,0.0,0.0,0.0,0.0,0.0
1646351046.2945123,8545,1646351046,294134785,,0.0,0.0,0.0,0.0,0.0,0.0,0.0,0.0,0.0,0.0,0.0,0.0,0.0,0.022219980135560036,0.10025188326835632,0.0047355457209050655,0.0,0.0,0.0,0.0,0.0,0.0,0.0,0.0,0.0,-0.4415384829044342,0.10410256683826447,10.121281623840332,0.0,0.0,0.0,0.0,0.0,0.0,0.0,0.0,0.0
1646351046.2968614,8546,1646351046,296383718,,0.0,0.0,0.0,0.0,0.0,0.0,0.0,0.0,0.0,0.0,0.0,0.0,0.0,0.019024187698960304,0.11942664533853531,-0.012308684177696705,0.0,0.0,0.0,0.0,0.0,0.0,0.0,0.0,0.0,-0.7000000476837158,-0.21717949211597443,9.783845901489258,0.0,0.0,0.0,0.0,0.0,0.0,0.0,0.0,0.0
1646351046.29908,8547,1646351046,298686812,,0.0,0.0,0.0,0.0,0.0,0.0,0.0,0.0,0.0,0.0,0.0,0.0,0.0,0.006241013761609793,0.10664347559213638,0.012192396447062492,0.0,0.0,0.0,0.0,0.0,0.0,0.0,0.0,0.0,-0.42897436022758484,0.2297435998916626,10.137436866760254,0.0,0.0,0.0,0.0,0.0,0.0,0.0,0.0,0.0
1646351046.3012984,8548,1646351046,300948722,,0.0,0.0,0.0,0.0,0.0,0.0,0.0,0.0,0.0,0.0,0.0,0.0,0.0,0.009436807595193386,0.11303506046533585,-0.006982361897826195,0.0,0.0,0.0,0.0,0.0,0.0,0.0,0.0,0.0,-0.4594871997833252,-0.23153845965862274,9.807180404663086,0.0,0.0,0.0,0.0,0.0,0.0,0.0,0.0,0.0
1646351046.3036332,8549,1646351046,303178523,,0.0,0.0,0.0,0.0,0.0,0.0,0.0,0.0,0.0,0.0,0.0,0.0,0.0,-0.02252112329006195,0.1332750767469406,0.02710609696805477,0.0,0.0,0.0,0.0,0.0,0.0,0.0,0.0,0.0,-0.4361538589000702,0.1651282161474228,9.794615745544434,0.0,0.0,0.0,0.0,0.0,0.0,0.0,0.0,0.0
1646351046.305775,8550,1646351046,305444740,,0.0,0.0,0.0,0.0,0.0,0.0,0.0,0.0,0.0,0.0,0.0,0.0,0.0,-0.020390594378113747,0.10770873725414276,-0.015504478476941586,0.0,0.0,0.0,0.0,0.0,0.0,0.0,0.0,0.0,-0.6156410574913025,0.0,9.798205375671387,0.0,0.0,0.0,0.0,0.0,0.0,0.0,0.0,0.0
1646351046.308137,8551,1646351046,307685670,,0.0,0.0,0.0,0.0,0.0,0.0,0.0,0.0,0.0,0.0,0.0,0.0,0.0,-0.03636956214904785,0.11303506046533585,0.0058008101768791676,0.0,0.0,0.0,0.0,0.0,0.0,0.0,0.0,0.0,-0.40743592381477356,-0.23692308366298676,9.536153793334961,0.0,0.0,0.0,0.0,0.0,0.0,0.0,0.0,0.0
1646351046.3102703,8552,1646351046,309931332,,0.0,0.0,0.0,0.0,0.0,0.0,0.0,0.0,0.0,0.0,0.0,0.0,0.0,-0.04382640868425369,0.08214239031076431,-0.020830798894166946,0.0,0.0,0.0,0.0,0.0,0.0,0.0,0.0,0.0,-0.5061538815498352,0.07000000029802322,9.661794662475586,0.0,0.0,0.0,0.0,0.0,0.0,0.0,0.0,0.0
1646351046.31266,8553,1646351046,312244044,,0.0,0.0,0.0,0.0,0.0,0.0,0.0,0.0,0.0,0.0,0.0,0.0,0.0,-0.04063061624765396,0.09279503673315048,-0.03361397236585617,0.0,0.0,0.0,0.0,0.0,0.0,0.0,0.0,0.0,-0.14897435903549194,-0.1794871836900711,9.467948913574219,0.0,0.0,0.0,0.0,0.0,0.0,0.0,0.0,0.0
1646351046.31484,8554,1646351046,314487659,,0.0,0.0,0.0,0.0,0.0,0.0,0.0,0.0,0.0,0.0,0.0,0.0,0.0,-0.04915273189544678,0.07148974388837814,-0.024026591330766678,0.0,0.0,0.0,0.0,0.0,0.0,0.0,0.0,0.0,-0.5097435712814331,0.20461538434028625,9.667179107666016,0.0,0.0,0.0,0.0,0.0,0.0,0.0,0.0,0.0
1646351046.3171234,8555,1646351046,316713929,,0.0,0.0,0.0,0.0,0.0,0.0,0.0,0.0,0.0,0.0,0.0,0.0,0.0,-0.023586388677358627,0.09172976762056351,-0.0005907765007577837,0.0,0.0,0.0,0.0,0.0,0.0,0.0,0.0,0.0,-0.4594871997833252,-0.14538460969924927,9.625897407531738,0.0,0.0,0.0,0.0,0.0,0.0,0.0,0.0,0.0
1646351046.3191988,8556,1646351046,318919669,,0.0,0.0,0.0,0.0,0.0,0.0,0.0,0.0,0.0,0.0,0.0,0.0,0.0,-0.005476894788444042,0.07681606709957123,0.0047355457209050655,0.0,0.0,0.0,0.0,0.0,0.0,0.0,0.0,0.0,-0.4182051420211792,0.22435897588729858,9.808974266052246,0.0,0.0,0.0,0.0,0.0,0.0,0.0,0.0,0.0
1646351046.3215234,8557,1646351046,321148058,,0.0,0.0,0.0,0.0,0.0,0.0,0.0,0.0,0.0,0.0,0.0,0.0,0.0,-0.0342390350997448,0.10238241404294968,0.0026050168089568615,0.0,0.0,0.0,0.0,0.0,0.0,0.0,0.0,0.0,-0.44692307710647583,-0.1238461583852768,9.613333702087402,0.0,0.0,0.0,0.0,0.0,0.0,0.0,0.0,0.0
1646351046.3238087,8558,1646351046,323362983,,0.0,0.0,0.0,0.0,0.0,0.0,0.0,0.0,0.0,0.0,0.0,0.0,0.0,-0.017194801941514015,0.08107712864875793,0.021779777482151985,0.0,0.0,0.0,0.0,0.0,0.0,0.0,0.0,0.0,-0.5187179446220398,-0.03769230842590332,9.537948608398438,0.0,0.0,0.0,0.0,0.0,0.0,0.0,0.0,0.0
1646351046.326855,8559,1646351046,325630581,,0.0,0.0,0.0,0.0,0.0,0.0,0.0,0.0,0.0,0.0,0.0,0.0,0.0,-0.017194801941514015,0.07575080543756485,0.010061867535114288,0.0,0.0,0.0,0.0,0.0,0.0,0.0,0.0,0.0,-0.6030769348144531,0.1705128252506256,9.814358711242676,0.0,0.0,0.0,0.0,0.0,0.0,0.0,0.0,0.0
1646351046.3282964,8560,1646351046,327856957,,0.0,0.0,0.0,0.0,0.0,0.0,0.0,0.0,0.0,0.0,0.0,0.0,0.0,0.009436807595193386,0.07255501300096512,0.014322925359010696,0.0,0.0,0.0,0.0,0.0,0.0,0.0,0.0,0.0,-0.787948727607727,-0.2441025674343109,9.45897388458252,0.0,0.0,0.0,0.0,0.0,0.0,0.0,0.0,0.0
1646351046.3304594,8561,1646351046,330098679,,0.0,0.0,0.0,0.0,0.0,0.0,0.0,0.0,0.0,0.0,0.0,0.0,0.0,-0.00015057262498885393,0.05338025465607643,0.012192396447062492,0.0,0.0,0.0,0.0,0.0,0.0,0.0,0.0,0.0,-0.5582051277160645,0.3482051491737366,9.916666030883789,0.0,0.0,0.0,0.0,0.0,0.0,0.0,0.0,0.0
1646351046.3326726,8562,1646351046,332305799,,0.0,0.0,0.0,0.0,0.0,0.0,0.0,0.0,0.0,0.0,0.0,0.0,0.0,0.010502072051167488,0.08214239031076431,0.02710609696805477,0.0,0.0,0.0,0.0,0.0,0.0,0.0,0.0,0.0,-0.4738461673259735,-0.1794871836900711,9.602563858032227,0.0,0.0,0.0,0.0,0.0,0.0,0.0,0.0,0.0
1646351046.3348444,8563,1646351046,334499315,,0.0,0.0,0.0,0.0,0.0,0.0,0.0,0.0,0.0,0.0,0.0,0.0,0.0,-0.005476894788444042,0.04805393144488335,0.010061867535114288,0.0,0.0,0.0,0.0,0.0,0.0,0.0,0.0,0.0,-0.42897436022758484,0.23512820899486542,9.730000495910645,0.0,0.0,0.0,0.0,0.0,0.0,0.0,0.0,0.0
1646351046.337178,8564,1646351046,336730689,,0.0,0.0,0.0,0.0,0.0,0.0,0.0,0.0,0.0,0.0,0.0,0.0,0.0,0.0030452206265181303,0.0640328973531723,0.008996603079140186,0.0,0.0,0.0,0.0,0.0,0.0,0.0,0.0,0.0,-0.5348718166351318,-0.01974359154701233,9.559487342834473,0.0,0.0,0.0,0.0,0.0,0.0,0.0,0.0,0.0
1646351046.3392048,8565,1646351046,338933192,,0.0,0.0,0.0,0.0,0.0,0.0,0.0,0.0,0.0,0.0,0.0,0.0,0.0,-0.01186848059296608,0.07681606709957123,-0.009112890809774399,0.0,0.0,0.0,0.0,0.0,0.0,0.0,0.0,0.0,-0.5779487490653992,0.24589744210243225,9.878974914550781,0.0,0.0,0.0,0.0,0.0,0.0,0.0,0.0,0.0
1646351046.3417213,8566,1646351046,341179334,,0.0,0.0,0.0,0.0,0.0,0.0,0.0,0.0,0.0,0.0,0.0,0.0,0.0,0.001979956403374672,0.04379286989569664,0.013257660903036594,0.0,0.0,0.0,0.0,0.0,0.0,0.0,0.0,0.0,-0.6676923632621765,0.12564103305339813,10.124872207641602,0.0,0.0,0.0,0.0,0.0,0.0,0.0,0.0,0.0
1646351046.343879,8567,1646351046,343413532,,0.0,0.0,0.0,0.0,0.0,0.0,0.0,0.0,0.0,0.0,0.0,0.0,0.0,-0.016129538416862488,0.06722868978977203,0.022845041006803513,0.0,0.0,0.0,0.0,0.0,0.0,0.0,0.0,0.0,-0.901025652885437,-0.21897436678409576,9.60076904296875,0.0,0.0,0.0,0.0,0.0,0.0,0.0,0.0,0.0
1646351046.346222,8568,1646351046,345671020,,0.0,0.0,0.0,0.0,0.0,0.0,0.0,0.0,0.0,0.0,0.0,0.0,0.0,-0.012933745980262756,0.06190236657857895,0.007931338623166084,0.0,0.0,0.0,0.0,0.0,0.0,0.0,0.0,0.0,-0.6174359321594238,0.030512820929288864,9.880769729614258,0.0,0.0,0.0,0.0,0.0,0.0,0.0,0.0,0.0
1646351046.3482933,8569,1646351046,347993737,,0.0,0.0,0.0,0.0,0.0,0.0,0.0,0.0,0.0,0.0,0.0,0.0,0.0,0.005175749771296978,0.04911919683218002,0.010061867535114288,0.0,0.0,0.0,0.0,0.0,0.0,0.0,0.0,0.0,-0.7430769801139832,-0.28717949986457825,9.668973922729492,0.0,0.0,0.0,0.0,0.0,0.0,0.0,0.0,0.0
1646351046.3505797,8570,1646351046,350242458,,0.0,0.0,0.0,0.0,0.0,0.0,0.0,0.0,0.0,0.0,0.0,0.0,0.0,-0.01506427489221096,0.05444552004337311,-0.009112890809774399,0.0,0.0,0.0,0.0,0.0,0.0,0.0,0.0,0.0,-0.4971795082092285,0.06820512562990189,9.721025466918945,0.0,0.0,0.0,0.0,0.0,0.0,0.0,0.0,0.0
1646351046.3528836,8571,1646351046,352449449,,0.0,0.0,0.0,0.0,0.0,0.0,0.0,0.0,0.0,0.0,0.0,0.0,0.0,-0.01186848059296608,0.052314989268779755,-0.006982361897826195,0.0,0.0,0.0,0.0,0.0,0.0,0.0,0.0,0.0,-0.5241025686264038,-0.13102564215660095,9.525384902954102,0.0,0.0,0.0,0.0,0.0,0.0,0.0,0.0,0.0
1646351046.3551383,8572,1646351046,354657831,,0.0,0.0,0.0,0.0,0.0,0.0,0.0,0.0,0.0,0.0,0.0,0.0,0.0,0.005175749771296978,0.04805393144488335,0.014322925359010696,0.0,0.0,0.0,0.0,0.0,0.0,0.0,0.0,0.0,-0.6569231152534485,0.03589743748307228,9.74256420135498,0.0,0.0,0.0,0.0,0.0,0.0,0.0,0.0,0.0
1646351046.3574443,8573,1646351046,356975978,,0.0,0.0,0.0,0.0,0.0,0.0,0.0,0.0,0.0,0.0,0.0,0.0,0.0,-0.007607422769069672,0.051249727606773376,0.0036702812649309635,0.0,0.0,0.0,0.0,0.0,0.0,0.0,0.0,0.0,-0.7394872307777405,-0.11307692527770996,10.024358749389648,0.0,0.0,0.0,0.0,0.0,0.0,0.0,0.0,0.0
1646351046.3595455,8574,1646351046,359165965,,0.0,0.0,0.0,0.0,0.0,0.0,0.0,0.0,0.0,0.0,0.0,0.0,0.0,-0.010803216136991978,0.04485813528299332,0.03456294909119606,0.0,0.0,0.0,0.0,0.0,0.0,0.0,0.0,0.0,-0.8400000333786011,-0.2746153771877289,9.469743728637695,0.0,0.0,0.0,0.0,0.0,0.0,0.0,0.0,0.0
1646351046.3618166,8575,1646351046,361357895,,0.0,0.0,0.0,0.0,0.0,0.0,0.0,0.0,0.0,0.0,0.0,0.0,0.0,0.012632600963115692,0.056576043367385864,-0.014439214020967484,0.0,0.0,0.0,0.0,0.0,0.0,0.0,0.0,0.0,-0.5923076868057251,-0.06820512562990189,9.9399995803833,0.0,0.0,0.0,0.0,0.0,0.0,0.0,0.0,0.0
1646351046.36406,8576,1646351046,363567875,,0.0,0.0,0.0,0.0,0.0,0.0,0.0,0.0,0.0,0.0,0.0,0.0,0.0,0.0009146920638158917,0.038466550409793854,0.013257660903036594,0.0,0.0,0.0,0.0,0.0,0.0,0.0,0.0,0.0,-0.36974361538887024,-0.28358975052833557,9.740769386291504,0.0,0.0,0.0,0.0,0.0,0.0,0.0,0.0,0.0
1646351046.366239,8577,1646351046,365806022,,0.0,0.0,0.0,0.0,0.0,0.0,0.0,0.0,0.0,0.0,0.0,0.0,0.0,0.0030452206265181303,0.059771839529275894,0.015388189814984798,0.0,0.0,0.0,0.0,0.0,0.0,0.0,0.0,0.0,-0.5079486966133118,0.10769230872392654,9.839487075805664,0.0,0.0,0.0,0.0,0.0,0.0,0.0,0.0,0.0
1646351046.3694947,8578,1646351046,368074574,,0.0,0.0,0.0,0.0,0.0,0.0,0.0,0.0,0.0,0.0,0.0,0.0,0.0,0.001979956403374672,0.05870657414197922,-0.014439214020967484,0.0,0.0,0.0,0.0,0.0,0.0,0.0,0.0,0.0,-0.8794872164726257,0.001794871874153614,9.764102935791016,0.0,0.0,0.0,0.0,0.0,0.0,0.0,0.0,0.0
1646351046.3706343,8579,1646351046,370308203,,0.0,0.0,0.0,0.0,0.0,0.0,0.0,0.0,0.0,0.0,0.0,0.0,0.0,0.01156733650714159,0.052314989268779755,0.02071451209485531,0.0,0.0,0.0,0.0,0.0,0.0,0.0,0.0,0.0,-0.8830769658088684,-0.2117948830127716,9.45718002319336,0.0,0.0,0.0,0.0,0.0,0.0,0.0,0.0,0.0
1646351046.3730817,8580,1646351046,372617885,,0.0,0.0,0.0,0.0,0.0,0.0,0.0,0.0,0.0,0.0,0.0,0.0,0.0,-0.018260065466165543,0.056576043367385864,0.0058008101768791676,0.0,0.0,0.0,0.0,0.0,0.0,0.0,0.0,0.0,-0.6102564334869385,0.07179487496614456,9.765897750854492,0.0,0.0,0.0,0.0,0.0,0.0,0.0,0.0,0.0
1646351046.37526,8581,1646351046,374922215,,0.0,0.0,0.0,0.0,0.0,0.0,0.0,0.0,0.0,0.0,0.0,0.0,0.0,-0.021455859765410423,0.04592340067028999,0.026040835306048393,0.0,0.0,0.0,0.0,0.0,0.0,0.0,0.0,0.0,-0.42000001668930054,-0.15435898303985596,9.537948608398438,0.0,0.0,0.0,0.0,0.0,0.0,0.0,0.0,0.0
1646351046.3776553,8582,1646351046,377254964,,0.0,0.0,0.0,0.0,0.0,0.0,0.0,0.0,0.0,0.0,0.0,0.0,0.0,-0.03636956214904785,0.03314023092389107,0.026040835306048393,0.0,0.0,0.0,0.0,0.0,0.0,0.0,0.0,0.0,-0.6425641179084778,0.09153846651315689,9.825127601623535,0.0,0.0,0.0,0.0,0.0,0.0,0.0,0.0,0.0
1646351046.3799531,8583,1646351046,379562302,,0.0,0.0,0.0,0.0,0.0,0.0,0.0,0.0,0.0,0.0,0.0,0.0,0.0,-0.03636956214904785,0.059771839529275894,0.022845041006803513,0.0,0.0,0.0,0.0,0.0,0.0,0.0,0.0,0.0,-0.5312820672988892,-0.2297435998916626,9.668973922729492,0.0,0.0,0.0,0.0,0.0,0.0,0.0,0.0,0.0
1646351046.3822954,8584,1646351046,381839593,,0.0,0.0,0.0,0.0,0.0,0.0,0.0,0.0,0.0,0.0,0.0,0.0,0.0,-0.01932533085346222,0.03953181207180023,-0.0005907765007577837,0.0,0.0,0.0,0.0,0.0,0.0,0.0,0.0,0.0,-0.6264103055000305,0.14000000059604645,9.837692260742188,0.0,0.0,0.0,0.0,0.0,0.0,0.0,0.0,0.0
1646351046.3845353,8585,1646351046,384079139,,0.0,0.0,0.0,0.0,0.0,0.0,0.0,0.0,0.0,0.0,0.0,0.0,0.0,-0.007607422769069672,0.02887917309999466,0.0281713604927063,0.0,0.0,0.0,0.0,0.0,0.0,0.0,0.0,0.0,-0.6102564334869385,-0.2710256576538086,9.690512657165527,0.0,0.0,0.0,0.0,0.0,0.0,0.0,0.0,0.0
1646351046.3867636,8586,1646351046,386283052,,0.0,0.0,0.0,0.0,0.0,0.0,0.0,0.0,0.0,0.0,0.0,0.0,0.0,-0.01932533085346222,0.020357057452201843,0.000474488188046962,0.0,0.0,0.0,0.0,0.0,0.0,0.0,0.0,0.0,-0.8741025924682617,-0.22615385055541992,9.575640678405762,0.0,0.0,0.0,0.0,0.0,0.0,0.0,0.0,0.0
1646351046.3888657,8587,1646351046,388490718,,0.0,0.0,0.0,0.0,0.0,0.0,0.0,0.0,0.0,0.0,0.0,0.0,0.0,-0.009737951681017876,0.034205492585897446,0.026040835306048393,0.0,0.0,0.0,0.0,0.0,0.0,0.0,0.0,0.0,-0.5958974361419678,0.2979487180709839,9.835898399353027,0.0,0.0,0.0,0.0,0.0,0.0,0.0,0.0,0.0
1646351046.3911355,8588,1646351046,390704342,,0.0,0.0,0.0,0.0,0.0,0.0,0.0,0.0,0.0,0.0,0.0,0.0,0.0,0.008371543139219284,0.023552851751446724,0.017518719658255577,0.0,0.0,0.0,0.0,0.0,0.0,0.0,0.0,0.0,-0.44871795177459717,-0.044871795922517776,9.568461418151855,0.0,0.0,0.0,0.0,0.0,0.0,0.0,0.0,0.0
1646351046.3933494,8589,1646351046,392953336,,0.0,0.0,0.0,0.0,0.0,0.0,0.0,0.0,0.0,0.0,0.0,0.0,0.0,-0.00441163033246994,0.019291793927550316,0.0281713604927063,0.0,0.0,0.0,0.0,0.0,0.0,0.0,0.0,0.0,-0.7017949223518372,0.2530769407749176,9.878974914550781,0.0,0.0,0.0,0.0,0.0,0.0,0.0,0.0,0.0
1646351046.395511,8590,1646351046,395156863,,0.0,0.0,0.0,0.0,0.0,0.0,0.0,0.0,0.0,0.0,0.0,0.0,0.0,0.025415774434804916,0.023552851751446724,0.0058008101768791676,0.0,0.0,0.0,0.0,0.0,0.0,0.0,0.0,0.0,-0.7179487347602844,0.11846154183149338,9.999231338500977,0.0,0.0,0.0,0.0,0.0,0.0,0.0,0.0,0.0
1646351046.3977654,8591,1646351046,397360233,,0.0,0.0,0.0,0.0,0.0,0.0,0.0,0.0,0.0,0.0,0.0,0.0,0.0,0.01689365692436695,0.035270754247903824,0.013257660903036594,0.0,0.0,0.0,0.0,0.0,0.0,0.0,0.0,0.0,-0.9153846502304077,-0.22256410121917725,9.706666946411133,0.0,0.0,0.0,0.0,0.0,0.0,0.0,0.0,0.0
1646351046.4000216,8592,1646351046,399633054,,0.0,0.0,0.0,0.0,0.0,0.0,0.0,0.0,0.0,0.0,0.0,0.0,0.0,0.010502072051167488,0.00011703448399202898,-0.005917098838835955,0.0,0.0,0.0,0.0,0.0,0.0,0.0,0.0,0.0,-0.8417949080467224,0.20461538434028625,10.031538009643555,0.0,0.0,0.0,0.0,0.0,0.0,0.0,0.0,0.0
1646351046.4022284,8593,1646351046,401845377,,0.0,0.0,0.0,0.0,0.0,0.0,0.0,0.0,0.0,0.0,0.0,0.0,0.0,-0.003346365410834551,0.016095999628305435,0.007931338623166084,0.0,0.0,0.0,0.0,0.0,0.0,0.0,0.0,0.0,-0.8417949080467224,-0.18307693302631378,9.907692909240723,0.0,0.0,0.0,0.0,0.0,0.0,0.0,0.0,0.0
1646351046.4044888,8594,1646351046,404042154,,0.0,0.0,0.0,0.0,0.0,0.0,0.0,0.0,0.0,0.0,0.0,0.0,0.0,0.001979956403374672,0.029944438487291336,0.010061867535114288,0.0,0.0,0.0,0.0,0.0,0.0,0.0,0.0,0.0,-0.7628205418586731,0.19025641679763794,10.026153564453125,0.0,0.0,0.0,0.0,0.0,0.0,0.0,0.0,0.0
1646351046.4067872,8595,1646351046,406269111,,0.0,0.0,0.0,0.0,0.0,0.0,0.0,0.0,0.0,0.0,0.0,0.0,0.0,0.007306278217583895,0.026748644188046455,0.026040835306048393,0.0,0.0,0.0,0.0,0.0,0.0,0.0,0.0,0.0,-0.5241025686264038,-0.10769230872392654,9.891538619995117,0.0,0.0,0.0,0.0,0.0,0.0,0.0,0.0,0.0
1646351046.408968,8596,1646351046,408569868,,0.0,0.0,0.0,0.0,0.0,0.0,0.0,0.0,0.0,0.0,0.0,0.0,0.0,-0.01506427489221096,0.009704413823783398,0.022845041006803513,0.0,0.0,0.0,0.0,0.0,0.0,0.0,0.0,0.0,-0.6658974885940552,-0.01794871874153614,9.738973617553711,0.0,0.0,0.0,0.0,0.0,0.0,0.0,0.0,0.0
1646351046.4120665,8597,1646351046,410823764,,0.0,0.0,0.0,0.0,0.0,0.0,0.0,0.0,0.0,0.0,0.0,0.0,0.0,-0.002281100954860449,0.010769677348434925,0.0058008101768791676,0.0,0.0,0.0,0.0,0.0,0.0,0.0,0.0,0.0,-0.8023077249526978,0.05384615436196327,9.963333129882812,0.0,0.0,0.0,0.0,0.0,0.0,0.0,0.0,0.0
1646351046.4134717,8598,1646351046,413068434,,0.0,0.0,0.0,0.0,0.0,0.0,0.0,0.0,0.0,0.0,0.0,0.0,0.0,-0.012933745980262756,0.023552851751446724,0.022845041006803513,0.0,0.0,0.0,0.0,0.0,0.0,0.0,0.0,0.0,-0.5582051277160645,-0.16871795058250427,9.663589477539062,0.0,0.0,0.0,0.0,0.0,0.0,0.0,0.0,0.0
1646351046.4157102,8599,1646351046,415274470,,0.0,0.0,0.0,0.0,0.0,0.0,0.0,0.0,0.0,0.0,0.0,0.0,0.0,-0.00654215831309557,0.026748644188046455,0.0164534542709589,0.0,0.0,0.0,0.0,0.0,0.0,0.0,0.0,0.0,-0.6407692432403564,0.28179487586021423,10.05128288269043,0.0,0.0,0.0,0.0,0.0,0.0,0.0,0.0,0.0
1646351046.4179838,8600,1646351046,417491319,,0.0,0.0,0.0,0.0,0.0,0.0,0.0,0.0,0.0,0.0,0.0,0.0,0.0,-0.003346365410834551,0.01822652854025364,0.043085064738988876,0.0,0.0,0.0,0.0,0.0,0.0,0.0,0.0,0.0,-0.7646154165267944,-0.1794871836900711,9.59538459777832,0.0,0.0,0.0,0.0,0.0,0.0,0.0,0.0,0.0
1646351046.4199903,8601,1646351046,419714906,,0.0,0.0,0.0,0.0,0.0,0.0,0.0,0.0,0.0,0.0,0.0,0.0,0.0,-0.009737951681017876,0.03740128502249718,-0.014439214020967484,0.0,0.0,0.0,0.0,0.0,0.0,0.0,0.0,0.0,-0.7197436094284058,0.1705128252506256,10.10692310333252,0.0,0.0,0.0,0.0,0.0,0.0,0.0,0.0,0.0
1646351046.4222167,8602,1646351046,421906721,,0.0,0.0,0.0,0.0,0.0,0.0,0.0,0.0,0.0,0.0,0.0,0.0,0.0,-0.00441163033246994,0.013965470716357231,0.04628085717558861,0.0,0.0,0.0,0.0,0.0,0.0,0.0,0.0,0.0,-0.9441025853157043,-0.25128206610679626,9.749743461608887,0.0,0.0,0.0,0.0,0.0,0.0,0.0,0.0,0.0
1646351046.42451,8603,1646351046,424140136,,0.0,0.0,0.0,0.0,0.0,0.0,0.0,0.0,0.0,0.0,0.0,0.0,0.0,-0.009737951681017876,-0.004144023172557354,0.000474488188046962,0.0,0.0,0.0,0.0,0.0,0.0,0.0,0.0,0.0,-0.6030769348144531,-0.01974359154701233,9.591794967651367,0.0,0.0,0.0,0.0,0.0,0.0,0.0,0.0,0.0
1646351046.4269955,8604,1646351046,426416807,,0.0,0.0,0.0,0.0,0.0,0.0,0.0,0.0,0.0,0.0,0.0,0.0,0.0,-0.020390594378113747,0.029944438487291336,-0.005917098838835955,0.0,0.0,0.0,0.0,0.0,0.0,0.0,0.0,0.0,-0.8202564120292664,0.18487180769443512,9.735384941101074,0.0,0.0,0.0,0.0,0.0,0.0,0.0,0.0,0.0
1646351046.4290102,8605,1646351046,428672115,,0.0,0.0,0.0,0.0,0.0,0.0,0.0,0.0,0.0,0.0,0.0,0.0,0.0,0.0030452206265181303,0.007573884446173906,0.018583983182907104,0.0,0.0,0.0,0.0,0.0,0.0,0.0,0.0,0.0,-0.6443589925765991,0.10769230872392654,9.785640716552734,0.0,0.0,0.0,0.0,0.0,0.0,0.0,0.0,0.0
1646351046.4312887,8606,1646351046,430945692,,0.0,0.0,0.0,0.0,0.0,0.0,0.0,0.0,0.0,0.0,0.0,0.0,0.0,0.004110485315322876,0.013965470716357231,-0.0027213047724217176,0.0,0.0,0.0,0.0,0.0,0.0,0.0,0.0,0.0,-0.6246154308319092,0.08615384995937347,9.74794864654541,0.0,0.0,0.0,0.0,0.0,0.0,0.0,0.0,0.0
1646351046.433542,8607,1646351046,433203826,,0.0,0.0,0.0,0.0,0.0,0.0,0.0,0.0,0.0,0.0,0.0,0.0,0.0,0.0030452206265181303,0.006508619990199804,-0.004851834382861853,0.0,0.0,0.0,0.0,0.0,0.0,0.0,0.0,0.0,-0.7861538529396057,-0.18307693302631378,9.573845863342285,0.0,0.0,0.0,0.0,0.0,0.0,0.0,0.0,0.0
1646351046.4357576,8608,1646351046,435411257,,0.0,0.0,0.0,0.0,0.0,0.0,0.0,0.0,0.0,0.0,0.0,0.0,0.0,-0.00015057262498885393,-0.0009482299210503697,0.0047355457209050655,0.0,0.0,0.0,0.0,0.0,0.0,0.0,0.0,0.0,-0.6964102983474731,0.10948718339204788,10.14102554321289,0.0,0.0,0.0,0.0,0.0,0.0,0.0,0.0,0.0
1646351046.4378855,8609,1646351046,437616575,,0.0,0.0,0.0,0.0,0.0,0.0,0.0,0.0,0.0,0.0,0.0,0.0,0.0,-0.016129538416862488,0.01822652854025364,0.0058008101768791676,0.0,0.0,0.0,0.0,0.0,0.0,0.0,0.0,0.0,-0.5456410050392151,-0.10769230872392654,9.45897388458252,0.0,0.0,0.0,0.0,0.0,0.0,0.0,0.0,0.0
1646351046.4403389,8610,1646351046,439872854,,0.0,0.0,0.0,0.0,0.0,0.0,0.0,0.0,0.0,0.0,0.0,0.0,0.0,0.014763129875063896,-0.0009482299210503697,0.00686607463285327,0.0,0.0,0.0,0.0,0.0,0.0,0.0,0.0,0.0,-0.6138461828231812,0.22615385055541992,9.925641059875488,0.0,0.0,0.0,0.0,0.0,0.0,0.0,0.0,0.0
1646351046.4425962,8611,1646351046,442177298,,0.0,0.0,0.0,0.0,0.0,0.0,0.0,0.0,0.0,0.0,0.0,0.0,0.0,-0.013999010436236858,-0.004144023172557354,-0.006982361897826195,0.0,0.0,0.0,0.0,0.0,0.0,0.0,0.0,0.0,-0.6461538672447205,0.07179487496614456,9.95974349975586,0.0,0.0,0.0,0.0,0.0,0.0,0.0,0.0,0.0
1646351046.4447145,8612,1646351046,444392569,,0.0,0.0,0.0,0.0,0.0,0.0,0.0,0.0,0.0,0.0,0.0,0.0,0.0,0.01689365692436695,0.00544335599988699,0.02391030639410019,0.0,0.0,0.0,0.0,0.0,0.0,0.0,0.0,0.0,-1.0320513248443604,-0.3482051491737366,9.591794967651367,0.0,0.0,0.0,0.0,0.0,0.0,0.0,0.0,0.0
1646351046.4471521,8613,1646351046,446663688,,0.0,0.0,0.0,0.0,0.0,0.0,0.0,0.0,0.0,0.0,0.0,0.0,0.0,-0.0012158364988863468,0.011834941804409027,-0.0027213047724217176,0.0,0.0,0.0,0.0,0.0,0.0,0.0,0.0,0.0,-0.7610256671905518,0.0735897421836853,9.977692604064941,0.0,0.0,0.0,0.0,0.0,0.0,0.0,0.0,0.0
1646351046.4493825,8614,1646351046,448909619,,0.0,0.0,0.0,0.0,0.0,0.0,0.0,0.0,0.0,0.0,0.0,0.0,0.0,-0.008672687225043774,0.008639149367809296,-0.005917098838835955,0.0,0.0,0.0,0.0,0.0,0.0,0.0,0.0,0.0,-0.7574359178543091,-0.22615385055541992,9.681538581848145,0.0,0.0,0.0,0.0,0.0,0.0,0.0,0.0,0.0
1646351046.4514995,8615,1646351046,451155892,,0.0,0.0,0.0,0.0,0.0,0.0,0.0,0.0,0.0,0.0,0.0,0.0,0.0,0.001979956403374672,-0.004144023172557354,0.0015397525858134031,0.0,0.0,0.0,0.0,0.0,0.0,0.0,0.0,0.0,-0.5707692503929138,0.2297435998916626,9.880769729614258,0.0,0.0,0.0,0.0,0.0,0.0,0.0,0.0,0.0
1646351046.4547148,8616,1646351046,453338793,,0.0,0.0,0.0,0.0,0.0,0.0,0.0,0.0,0.0,0.0,0.0,0.0,0.0,-0.00015057262498885393,0.00224756239913404,-0.0037865692283958197,0.0,0.0,0.0,0.0,0.0,0.0,0.0,0.0,0.0,-0.4810256361961365,-0.14179487526416779,9.957948684692383,0.0,0.0,0.0,0.0,0.0,0.0,0.0,0.0,0.0
