Time,header.seq,header.stamp.secs,header.stamp.nsecs,header.frame_id,orientation.x,orientation.y,orientation.z,orientation.w,orientation_covariance_0,orientation_covariance_1,orientation_covariance_2,orientation_covariance_3,orientation_covariance_4,orientation_covariance_5,orientation_covariance_6,orientation_covariance_7,orientation_covariance_8,angular_velocity.x,angular_velocity.y,angular_velocity.z,angular_velocity_covariance_0,angular_velocity_covariance_1,angular_velocity_covariance_2,angular_velocity_covariance_3,angular_velocity_covariance_4,angular_velocity_covariance_5,angular_velocity_covariance_6,angular_velocity_covariance_7,angular_velocity_covariance_8,linear_acceleration.x,linear_acceleration.y,linear_acceleration.z,linear_acceleration_covariance_0,linear_acceleration_covariance_1,linear_acceleration_covariance_2,linear_acceleration_covariance_3,linear_acceleration_covariance_4,linear_acceleration_covariance_5,linear_acceleration_covariance_6,linear_acceleration_covariance_7,linear_acceleration_covariance_8
1646243927.470371,6045,1646243927,469446348,,0.0,0.0,0.0,0.0,0.0,0.0,0.0,0.0,0.0,0.0,0.0,0.0,0.0,-0.0024625419173389673,-0.005828278139233589,0.01681920886039734,0.0,0.0,0.0,0.0,0.0,0.0,0.0,0.0,0.0,0.30512821674346924,0.16871795058250427,9.756922721862793,0.0,0.0,0.0,0.0,0.0,0.0,0.0,0.0,0.0
1646243927.471971,6046,1646243927,471668850,,0.0,0.0,0.0,0.0,0.0,0.0,0.0,0.0,0.0,0.0,0.0,0.0,0.0,0.0028637798968702555,-0.044177792966365814,0.006166566163301468,0.0,0.0,0.0,0.0,0.0,0.0,0.0,0.0,0.0,0.21358974277973175,-0.2674359083175659,9.435641288757324,0.0,0.0,0.0,0.0,0.0,0.0,0.0,0.0,0.0
1646243927.4742389,6047,1646243927,473865373,,0.0,0.0,0.0,0.0,0.0,0.0,0.0,0.0,0.0,0.0,0.0,0.0,0.0,-0.016310978680849075,-0.035655677318573,0.011492888443171978,0.0,0.0,0.0,0.0,0.0,0.0,0.0,0.0,0.0,0.31948718428611755,0.19564102590084076,9.814358711242676,0.0,0.0,0.0,0.0,0.0,0.0,0.0,0.0,0.0
1646243927.476527,6048,1646243927,476106454,,0.0,0.0,0.0,0.0,0.0,0.0,0.0,0.0,0.0,0.0,0.0,0.0,0.0,-0.009919392876327038,-0.018611449748277664,0.014688681811094284,0.0,0.0,0.0,0.0,0.0,0.0,0.0,0.0,0.0,0.26923078298568726,0.09512820839881897,9.828718185424805,0.0,0.0,0.0,0.0,0.0,0.0,0.0,0.0,0.0
1646243927.4787185,6049,1646243927,478318738,,0.0,0.0,0.0,0.0,0.0,0.0,0.0,0.0,0.0,0.0,0.0,0.0,0.0,0.0103206317871809,-0.04204726591706276,-0.011942928656935692,0.0,0.0,0.0,0.0,0.0,0.0,0.0,0.0,0.0,0.3535897731781006,-0.3069230914115906,9.482307434082031,0.0,0.0,0.0,0.0,0.0,0.0,0.0,0.0,0.0
1646243927.4809198,6050,1646243927,480533597,,0.0,0.0,0.0,0.0,0.0,0.0,0.0,0.0,0.0,0.0,0.0,0.0,0.0,0.001798515673726797,-0.01967671327292919,-0.01939977891743183,0.0,0.0,0.0,0.0,0.0,0.0,0.0,0.0,0.0,0.3212820589542389,0.04307692497968674,9.801794052124023,0.0,0.0,0.0,0.0,0.0,0.0,0.0,0.0,0.0
1646243927.4831026,6051,1646243927,482777208,,0.0,0.0,0.0,0.0,0.0,0.0,0.0,0.0,0.0,0.0,0.0,0.0,0.0,0.004994308575987816,-0.007958807051181793,0.009362359531223774,0.0,0.0,0.0,0.0,0.0,0.0,0.0,0.0,0.0,0.3715384900569916,-0.2925640940666199,9.65461540222168,0.0,0.0,0.0,0.0,0.0,0.0,0.0,0.0,0.0
1646243927.4854338,6052,1646243927,485027694,,0.0,0.0,0.0,0.0,0.0,0.0,0.0,0.0,0.0,0.0,0.0,0.0,0.0,0.008190101943910122,0.0026938372757285833,0.010427623987197876,0.0,0.0,0.0,0.0,0.0,0.0,0.0,0.0,0.0,0.2530769407749176,0.09153846651315689,9.878974914550781,0.0,0.0,0.0,0.0,0.0,0.0,0.0,0.0,0.0
1646243927.4874997,6053,1646243927,487215105,,0.0,0.0,0.0,0.0,0.0,0.0,0.0,0.0,0.0,0.0,0.0,0.0,0.0,-0.0013972773449495435,-0.013285127468407154,-0.005551342852413654,0.0,0.0,0.0,0.0,0.0,0.0,0.0,0.0,0.0,0.35538461804389954,-0.27820512652397156,9.430255889892578,0.0,0.0,0.0,0.0,0.0,0.0,0.0,0.0,0.0
1646243927.4897704,6054,1646243927,489447409,,0.0,0.0,0.0,0.0,0.0,0.0,0.0,0.0,0.0,0.0,0.0,0.0,0.0,-0.004593071062117815,-0.005828278139233589,-0.00022502047067973763,0.0,0.0,0.0,0.0,0.0,0.0,0.0,0.0,0.0,0.3571794927120209,0.01794871874153614,9.8610258102417,0.0,0.0,0.0,0.0,0.0,0.0,0.0,0.0,0.0
1646243927.4923167,6055,1646243927,491712434,,0.0,0.0,0.0,0.0,0.0,0.0,0.0,0.0,0.0,0.0,0.0,0.0,0.0,-0.0013972773449495435,0.017607539892196655,-0.004486078396439552,0.0,0.0,0.0,0.0,0.0,0.0,0.0,0.0,0.0,0.36974361538887024,-0.05923077091574669,9.449999809265137,0.0,0.0,0.0,0.0,0.0,0.0,0.0,0.0,0.0
1646243927.494321,6056,1646243927,493990008,,0.0,0.0,0.0,0.0,0.0,0.0,0.0,0.0,0.0,0.0,0.0,0.0,0.0,-0.02163730002939701,0.035717036575078964,-0.011942928656935692,0.0,0.0,0.0,0.0,0.0,0.0,0.0,0.0,0.0,0.4235897660255432,-0.3858974575996399,9.735384941101074,0.0,0.0,0.0,0.0,0.0,0.0,0.0,0.0,0.0
1646243927.496669,6057,1646243927,496233601,,0.0,0.0,0.0,0.0,0.0,0.0,0.0,0.0,0.0,0.0,0.0,0.0,0.0,-0.0067235990427434444,0.009085424244403839,-0.006616605911403894,0.0,0.0,0.0,0.0,0.0,0.0,0.0,0.0,0.0,0.4146153926849365,-0.06641025841236115,9.800000190734863,0.0,0.0,0.0,0.0,0.0,0.0,0.0,0.0,0.0
1646243927.4988787,6058,1646243927,498422067,,0.0,0.0,0.0,0.0,0.0,0.0,0.0,0.0,0.0,0.0,0.0,0.0,0.0,0.00925536546856165,0.006954895332455635,0.005101301707327366,0.0,0.0,0.0,0.0,0.0,0.0,0.0,0.0,0.0,0.4182051420211792,-0.24230769276618958,9.690512657165527,0.0,0.0,0.0,0.0,0.0,0.0,0.0,0.0,0.0
1646243927.5009549,6059,1646243927,500615392,,0.0,0.0,0.0,0.0,0.0,0.0,0.0,0.0,0.0,0.0,0.0,0.0,0.0,-0.0077888634987175465,0.020803332328796387,-0.02685662917792797,0.0,0.0,0.0,0.0,0.0,0.0,0.0,0.0,0.0,0.21717949211597443,-0.03769230842590332,9.887948036193848,0.0,0.0,0.0,0.0,0.0,0.0,0.0,0.0,0.0
1646243927.5031703,6060,1646243927,502802600,,0.0,0.0,0.0,0.0,0.0,0.0,0.0,0.0,0.0,0.0,0.0,0.0,0.0,0.01777748018503189,0.018672803416848183,-0.01087766420096159,0.0,0.0,0.0,0.0,0.0,0.0,0.0,0.0,0.0,0.4648717939853668,-0.32846155762672424,9.636667251586914,0.0,0.0,0.0,0.0,0.0,0.0,0.0,0.0,0.0
1646243927.5055993,6061,1646243927,505112143,,0.0,0.0,0.0,0.0,0.0,0.0,0.0,0.0,0.0,0.0,0.0,0.0,0.0,0.004994308575987816,0.018672803416848183,-0.0034208132419735193,0.0,0.0,0.0,0.0,0.0,0.0,0.0,0.0,0.0,0.6892307996749878,-0.07179487496614456,9.697691917419434,0.0,0.0,0.0,0.0,0.0,0.0,0.0,0.0,0.0
1646243927.5076716,6062,1646243927,507311688,,0.0,0.0,0.0,0.0,0.0,0.0,0.0,0.0,0.0,0.0,0.0,0.0,0.0,0.012451158836483955,0.009085424244403839,-0.022595571354031563,0.0,0.0,0.0,0.0,0.0,0.0,0.0,0.0,0.0,0.5653846263885498,-0.13641025125980377,9.810769081115723,0.0,0.0,0.0,0.0,0.0,0.0,0.0,0.0,0.0
1646243927.5099056,6063,1646243927,509501751,,0.0,0.0,0.0,0.0,0.0,0.0,0.0,0.0,0.0,0.0,0.0,0.0,0.0,-0.0035278063733130693,-0.0047630127519369125,-0.017269250005483627,0.0,0.0,0.0,0.0,0.0,0.0,0.0,0.0,0.0,0.43974360823631287,0.032307691872119904,9.613333702087402,0.0,0.0,0.0,0.0,0.0,0.0,0.0,0.0,0.0
1646243927.5120902,6064,1646243927,511685035,,0.0,0.0,0.0,0.0,0.0,0.0,0.0,0.0,0.0,0.0,0.0,0.0,0.0,-0.0024625419173389673,0.01973806880414486,-0.022595571354031563,0.0,0.0,0.0,0.0,0.0,0.0,0.0,0.0,0.0,0.4971795082092285,-0.08794872462749481,9.74256420135498,0.0,0.0,0.0,0.0,0.0,0.0,0.0,0.0,0.0
1646243927.5142536,6065,1646243927,513918225,,0.0,0.0,0.0,0.0,0.0,0.0,0.0,0.0,0.0,0.0,0.0,0.0,0.0,0.008190101943910122,0.029325447976589203,-0.00022502047067973763,0.0,0.0,0.0,0.0,0.0,0.0,0.0,0.0,0.0,0.4684615433216095,-0.19384616613388062,9.568461418151855,0.0,0.0,0.0,0.0,0.0,0.0,0.0,0.0,0.0
1646243927.5163717,6066,1646243927,516110957,,0.0,0.0,0.0,0.0,0.0,0.0,0.0,0.0,0.0,0.0,0.0,0.0,0.0,-0.008854128420352936,0.01441174652427435,-0.01087766420096159,0.0,0.0,0.0,0.0,0.0,0.0,0.0,0.0,0.0,0.3858974575996399,0.05384615436196327,9.972307205200195,0.0,0.0,0.0,0.0,0.0,0.0,0.0,0.0,0.0
1646243927.5187755,6067,1646243927,518346344,,0.0,0.0,0.0,0.0,0.0,0.0,0.0,0.0,0.0,0.0,0.0,0.0,0.0,0.02523433417081833,0.023999126628041267,-0.025791365653276443,0.0,0.0,0.0,0.0,0.0,0.0,0.0,0.0,0.0,0.5510256290435791,-0.11307692527770996,9.609743118286133,0.0,0.0,0.0,0.0,0.0,0.0,0.0,0.0,0.0
1646243927.5209808,6068,1646243927,520575799,,0.0,0.0,0.0,0.0,0.0,0.0,0.0,0.0,0.0,0.0,0.0,0.0,0.0,0.011385894380509853,0.01441174652427435,0.009362359531223774,0.0,0.0,0.0,0.0,0.0,0.0,0.0,0.0,0.0,0.38769233226776123,-0.08794872462749481,9.948974609375,0.0,0.0,0.0,0.0,0.0,0.0,0.0,0.0,0.0
1646243927.5231295,6069,1646243927,522806228,,0.0,0.0,0.0,0.0,0.0,0.0,0.0,0.0,0.0,0.0,0.0,0.0,0.0,0.015646953135728836,0.03784756362438202,-0.02685662917792797,0.0,0.0,0.0,0.0,0.0,0.0,0.0,0.0,0.0,0.2620512843132019,-0.05384615436196327,9.695897102355957,0.0,0.0,0.0,0.0,0.0,0.0,0.0,0.0,0.0
1646243927.5253272,6070,1646243927,525021129,,0.0,0.0,0.0,0.0,0.0,0.0,0.0,0.0,0.0,0.0,0.0,0.0,0.0,0.014581688679754734,0.027194919064641,-0.030052425339818,0.0,0.0,0.0,0.0,0.0,0.0,0.0,0.0,0.0,0.3266666829586029,-0.22794872522354126,9.74794864654541,0.0,0.0,0.0,0.0,0.0,0.0,0.0,0.0,0.0
1646243927.5275242,6071,1646243927,527246876,,0.0,0.0,0.0,0.0,0.0,0.0,0.0,0.0,0.0,0.0,0.0,0.0,0.0,0.014581688679754734,0.021868597716093063,0.002970772795379162,0.0,0.0,0.0,0.0,0.0,0.0,0.0,0.0,0.0,0.24051281809806824,0.17230769991874695,9.93820571899414,0.0,0.0,0.0,0.0,0.0,0.0,0.0,0.0,0.0
1646243927.5298696,6072,1646243927,529443434,,0.0,0.0,0.0,0.0,0.0,0.0,0.0,0.0,0.0,0.0,0.0,0.0,0.0,0.018842745572328568,0.035717036575078964,-0.0023555487859994173,0.0,0.0,0.0,0.0,0.0,0.0,0.0,0.0,0.0,0.23153845965862274,-0.29615384340286255,9.697691917419434,0.0,0.0,0.0,0.0,0.0,0.0,0.0,0.0,0.0
1646243927.531924,6073,1646243927,531590530,,0.0,0.0,0.0,0.0,0.0,0.0,0.0,0.0,0.0,0.0,0.0,0.0,0.0,0.0028637798968702555,0.04743494465947151,-0.005551342852413654,0.0,0.0,0.0,0.0,0.0,0.0,0.0,0.0,0.0,0.3410256505012512,0.15435898303985596,9.94538402557373,0.0,0.0,0.0,0.0,0.0,0.0,0.0,0.0,0.0
1646243927.5347986,6074,1646243927,534218762,,0.0,0.0,0.0,0.0,0.0,0.0,0.0,0.0,0.0,0.0,0.0,0.0,0.0,-0.013115186244249344,0.04956547170877457,-0.0417703278362751,0.0,0.0,0.0,0.0,0.0,0.0,0.0,0.0,0.0,0.24230769276618958,0.19025641679763794,9.884359359741211,0.0,0.0,0.0,0.0,0.0,0.0,0.0,0.0,0.0
1646243927.5368822,6075,1646243927,536439256,,0.0,0.0,0.0,0.0,0.0,0.0,0.0,0.0,0.0,0.0,0.0,0.0,0.0,0.0028637798968702555,0.04743494465947151,0.002970772795379162,0.0,0.0,0.0,0.0,0.0,0.0,0.0,0.0,0.0,0.22256410121917725,-0.1741025745868683,9.731794357299805,0.0,0.0,0.0,0.0,0.0,0.0,0.0,0.0,0.0
1646243927.5389872,6076,1646243927,538650195,,0.0,0.0,0.0,0.0,0.0,0.0,0.0,0.0,0.0,0.0,0.0,0.0,0.0,-0.0003320134710520506,0.04743494465947151,-0.028987158089876175,0.0,0.0,0.0,0.0,0.0,0.0,0.0,0.0,0.0,0.18128205835819244,0.1058974415063858,9.986666679382324,0.0,0.0,0.0,0.0,0.0,0.0,0.0,0.0,0.0
1646243927.5411885,6077,1646243927,540890383,,0.0,0.0,0.0,0.0,0.0,0.0,0.0,0.0,0.0,0.0,0.0,0.0,0.0,0.006059573031961918,0.04956547170877457,-0.0023555487859994173,0.0,0.0,0.0,0.0,0.0,0.0,0.0,0.0,0.0,0.19205129146575928,-0.23512820899486542,9.665384292602539,0.0,0.0,0.0,0.0,0.0,0.0,0.0,0.0,0.0
1646243927.5441327,6078,1646243927,543077637,,0.0,0.0,0.0,0.0,0.0,0.0,0.0,0.0,0.0,0.0,0.0,0.0,0.0,-0.026963621377944946,0.0708707645535469,-0.00022502047067973763,0.0,0.0,0.0,0.0,0.0,0.0,0.0,0.0,0.0,0.1741025745868683,0.14358974993228912,9.807180404663086,0.0,0.0,0.0,0.0,0.0,0.0,0.0,0.0,0.0
1646243927.5455868,6079,1646243927,545256633,,0.0,0.0,0.0,0.0,0.0,0.0,0.0,0.0,0.0,0.0,0.0,0.0,0.0,-0.023767828941345215,0.04956547170877457,-0.00022502047067973763,0.0,0.0,0.0,0.0,0.0,0.0,0.0,0.0,0.0,0.29615384340286255,-0.06820512562990189,9.715641021728516,0.0,0.0,0.0,0.0,0.0,0.0,0.0,0.0,0.0
1646243927.54771,6080,1646243927,547445792,,0.0,0.0,0.0,0.0,0.0,0.0,0.0,0.0,0.0,0.0,0.0,0.0,0.0,-0.031224681064486504,0.06554443389177322,0.006166566163301468,0.0,0.0,0.0,0.0,0.0,0.0,0.0,0.0,0.0,0.14897435903549194,0.20461538434028625,9.695897102355957,0.0,0.0,0.0,0.0,0.0,0.0,0.0,0.0,0.0
1646243927.550026,6081,1646243927,549652375,,0.0,0.0,0.0,0.0,0.0,0.0,0.0,0.0,0.0,0.0,0.0,0.0,0.0,-0.020572034642100334,0.04530441388487816,0.0008402442326769233,0.0,0.0,0.0,0.0,0.0,0.0,0.0,0.0,0.0,0.1741025745868683,0.010769231244921684,9.731794357299805,0.0,0.0,0.0,0.0,0.0,0.0,0.0,0.0,0.0
1646243927.5524085,6082,1646243927,551972012,,0.0,0.0,0.0,0.0,0.0,0.0,0.0,0.0,0.0,0.0,0.0,0.0,0.0,-0.0077888634987175465,0.06021811440587044,-0.0076818703673779964,0.0,0.0,0.0,0.0,0.0,0.0,0.0,0.0,0.0,0.05025641247630119,-0.1794871836900711,9.837692260742188,0.0,0.0,0.0,0.0,0.0,0.0,0.0,0.0,0.0
1646243927.554573,6083,1646243927,554201920,,0.0,0.0,0.0,0.0,0.0,0.0,0.0,0.0,0.0,0.0,0.0,0.0,0.0,-0.009919392876327038,0.032521240413188934,-0.00022502047067973763,0.0,0.0,0.0,0.0,0.0,0.0,0.0,0.0,0.0,0.07538461685180664,0.25487178564071655,10.04769229888916,0.0,0.0,0.0,0.0,0.0,0.0,0.0,0.0,0.0
1646243927.556911,6084,1646243927,556450017,,0.0,0.0,0.0,0.0,0.0,0.0,0.0,0.0,0.0,0.0,0.0,0.0,0.0,-0.0003320134710520506,0.04850020632147789,-0.005551342852413654,0.0,0.0,0.0,0.0,0.0,0.0,0.0,0.0,0.0,0.07179487496614456,-0.001794871874153614,9.762307167053223,0.0,0.0,0.0,0.0,0.0,0.0,0.0,0.0,0.0
1646243927.5589876,6085,1646243927,558666980,,0.0,0.0,0.0,0.0,0.0,0.0,0.0,0.0,0.0,0.0,0.0,0.0,0.0,-0.009919392876327038,0.03358650580048561,0.008297095075249672,0.0,0.0,0.0,0.0,0.0,0.0,0.0,0.0,0.0,0.001794871874153614,0.16333334147930145,9.990256309509277,0.0,0.0,0.0,0.0,0.0,0.0,0.0,0.0,0.0
1646243927.561242,6086,1646243927,560873348,,0.0,0.0,0.0,0.0,0.0,0.0,0.0,0.0,0.0,0.0,0.0,0.0,0.0,0.023103805258870125,0.04210862144827843,-0.01939977891743183,0.0,0.0,0.0,0.0,0.0,0.0,0.0,0.0,0.0,-0.04307692497968674,0.1705128252506256,9.825127601623535,0.0,0.0,0.0,0.0,0.0,0.0,0.0,0.0,0.0
1646243927.5632818,6087,1646243927,563085166,,0.0,0.0,0.0,0.0,0.0,0.0,0.0,0.0,0.0,0.0,0.0,0.0,0.0,-0.0067235990427434444,0.043173886835575104,0.009362359531223774,0.0,0.0,0.0,0.0,0.0,0.0,0.0,0.0,0.0,-0.010769231244921684,0.2566666603088379,9.695897102355957,0.0,0.0,0.0,0.0,0.0,0.0,0.0,0.0,0.0
1646243927.5656645,6088,1646243927,565296634,,0.0,0.0,0.0,0.0,0.0,0.0,0.0,0.0,0.0,0.0,0.0,0.0,0.0,0.003929044120013714,0.04104335606098175,-0.0076818703673779964,0.0,0.0,0.0,0.0,0.0,0.0,0.0,0.0,0.0,-0.09333333373069763,0.26923078298568726,10.038718223571777,0.0,0.0,0.0,0.0,0.0,0.0,0.0,0.0,0.0
1646243927.5679648,6089,1646243927,567498734,,0.0,0.0,0.0,0.0,0.0,0.0,0.0,0.0,0.0,0.0,0.0,0.0,0.0,0.018842745572328568,0.02612965553998947,-0.0023555487859994173,0.0,0.0,0.0,0.0,0.0,0.0,0.0,0.0,0.0,-0.18307693302631378,0.025128206238150597,9.9094877243042,0.0,0.0,0.0,0.0,0.0,0.0,0.0,0.0,0.0
1646243927.570167,6090,1646243927,569713427,,0.0,0.0,0.0,0.0,0.0,0.0,0.0,0.0,0.0,0.0,0.0,0.0,0.0,0.012451158836483955,0.029325447976589203,-0.01939977891743183,0.0,0.0,0.0,0.0,0.0,0.0,0.0,0.0,0.0,0.0,0.24051281809806824,9.839487075805664,0.0,0.0,0.0,0.0,0.0,0.0,0.0,0.0,0.0
1646243927.5722506,6091,1646243927,571917331,,0.0,0.0,0.0,0.0,0.0,0.0,0.0,0.0,0.0,0.0,0.0,0.0,0.0,0.006059573031961918,0.032521240413188934,-0.005551342852413654,0.0,0.0,0.0,0.0,0.0,0.0,0.0,0.0,0.0,-0.06641025841236115,-0.03410256281495094,9.69948673248291,0.0,0.0,0.0,0.0,0.0,0.0,0.0,0.0,0.0
1646243927.5744169,6092,1646243927,574112416,,0.0,0.0,0.0,0.0,0.0,0.0,0.0,0.0,0.0,0.0,0.0,0.0,0.0,0.02097327448427677,0.015477010980248451,-0.018334513530135155,0.0,0.0,0.0,0.0,0.0,0.0,0.0,0.0,0.0,-0.15256410837173462,0.5025641322135925,9.984871864318848,0.0,0.0,0.0,0.0,0.0,0.0,0.0,0.0,0.0
1646243927.576708,6093,1646243927,576300576,,0.0,0.0,0.0,0.0,0.0,0.0,0.0,0.0,0.0,0.0,0.0,0.0,0.0,0.0028637798968702555,-0.0015672193840146065,-0.017269250005483627,0.0,0.0,0.0,0.0,0.0,0.0,0.0,0.0,0.0,-0.2207692414522171,-0.07000000029802322,9.762307167053223,0.0,0.0,0.0,0.0,0.0,0.0,0.0,0.0,0.0
1646243927.5790193,6094,1646243927,578571768,,0.0,0.0,0.0,0.0,0.0,0.0,0.0,0.0,0.0,0.0,0.0,0.0,0.0,0.011385894380509853,0.043173886835575104,-0.0076818703673779964,0.0,0.0,0.0,0.0,0.0,0.0,0.0,0.0,0.0,-0.3643589913845062,0.49358975887298584,10.105128288269043,0.0,0.0,0.0,0.0,0.0,0.0,0.0,0.0,0.0
1646243927.5811634,6095,1646243927,580744286,,0.0,0.0,0.0,0.0,0.0,0.0,0.0,0.0,0.0,0.0,0.0,0.0,0.0,-0.009919392876327038,0.011215953156352043,0.011492888443171978,0.0,0.0,0.0,0.0,0.0,0.0,0.0,0.0,0.0,-0.3123077154159546,0.01794871874153614,9.776666641235352,0.0,0.0,0.0,0.0,0.0,0.0,0.0,0.0,0.0
1646243927.5831964,6096,1646243927,582936634,,0.0,0.0,0.0,0.0,0.0,0.0,0.0,0.0,0.0,0.0,0.0,0.0,0.0,0.024169068783521652,0.01654227450489998,-0.013008194044232368,0.0,0.0,0.0,0.0,0.0,0.0,0.0,0.0,0.0,-0.25487178564071655,0.06641025841236115,9.823333740234375,0.0,0.0,0.0,0.0,0.0,0.0,0.0,0.0,0.0
1646243927.5869372,6097,1646243927,585113228,,0.0,0.0,0.0,0.0,0.0,0.0,0.0,0.0,0.0,0.0,0.0,0.0,0.0,0.006059573031961918,-0.0015672193840146065,-0.02046504244208336,0.0,0.0,0.0,0.0,0.0,0.0,0.0,0.0,0.0,-0.2530769407749176,0.32307693362236023,9.977692604064941,0.0,0.0,0.0,0.0,0.0,0.0,0.0,0.0,0.0
1646243927.5875463,6098,1646243927,587317541,,0.0,0.0,0.0,0.0,0.0,0.0,0.0,0.0,0.0,0.0,0.0,0.0,0.0,-0.014180450700223446,0.012281217612326145,0.009362359531223774,0.0,0.0,0.0,0.0,0.0,0.0,0.0,0.0,0.0,-0.2620512843132019,-0.06102564185857773,9.835898399353027,0.0,0.0,0.0,0.0,0.0,0.0,0.0,0.0,0.0
1646243927.5900092,6099,1646243927,589515948,,0.0,0.0,0.0,0.0,0.0,0.0,0.0,0.0,0.0,0.0,0.0,0.0,0.0,-0.0077888634987175465,0.008020159788429737,-0.02366083674132824,0.0,0.0,0.0,0.0,0.0,0.0,0.0,0.0,0.0,-0.3141025900840759,0.22435897588729858,10.09256362915039,0.0,0.0,0.0,0.0,0.0,0.0,0.0,0.0,0.0
1646243927.5920293,6100,1646243927,591687449,,0.0,0.0,0.0,0.0,0.0,0.0,0.0,0.0,0.0,0.0,0.0,0.0,0.0,-0.01098465733230114,0.0026938372757285833,-0.005551342852413654,0.0,0.0,0.0,0.0,0.0,0.0,0.0,0.0,0.0,-0.4594871997833252,0.14000000059604645,9.656410217285156,0.0,0.0,0.0,0.0,0.0,0.0,0.0,0.0,0.0
1646243927.594285,6101,1646243927,593887238,,0.0,0.0,0.0,0.0,0.0,0.0,0.0,0.0,0.0,0.0,0.0,0.0,0.0,-0.0067235990427434444,0.0005633095279335976,0.009362359531223774,0.0,0.0,0.0,0.0,0.0,0.0,0.0,0.0,0.0,-0.24948717653751373,0.21000000834465027,9.835898399353027,0.0,0.0,0.0,0.0,0.0,0.0,0.0,0.0,0.0
1646243927.596452,6102,1646243927,596179884,,0.0,0.0,0.0,0.0,0.0,0.0,0.0,0.0,0.0,0.0,0.0,0.0,0.0,0.011385894380509853,0.0026938372757285833,0.009362359531223774,0.0,0.0,0.0,0.0,0.0,0.0,0.0,0.0,0.0,-0.26923078298568726,0.20461538434028625,9.521795272827148,0.0,0.0,0.0,0.0,0.0,0.0,0.0,0.0,0.0
1646243927.5987127,6103,1646243927,598363348,,0.0,0.0,0.0,0.0,0.0,0.0,0.0,0.0,0.0,0.0,0.0,0.0,0.0,-0.015245715156197548,-0.01115459855645895,-0.0162039864808321,0.0,0.0,0.0,0.0,0.0,0.0,0.0,0.0,0.0,-0.20102564990520477,0.3033333420753479,9.783845901489258,0.0,0.0,0.0,0.0,0.0,0.0,0.0,0.0,0.0
1646243927.6009965,6104,1646243927,600594031,,0.0,0.0,0.0,0.0,0.0,0.0,0.0,0.0,0.0,0.0,0.0,0.0,0.0,-0.013115186244249344,-0.013285127468407154,0.006166566163301468,0.0,0.0,0.0,0.0,0.0,0.0,0.0,0.0,0.0,-0.24948717653751373,0.1382051259279251,9.548717498779297,0.0,0.0,0.0,0.0,0.0,0.0,0.0,0.0,0.0
1646243927.6031919,6105,1646243927,602829984,,0.0,0.0,0.0,0.0,0.0,0.0,0.0,0.0,0.0,0.0,0.0,0.0,0.0,0.001798515673726797,0.010150688700377941,0.021080268546938896,0.0,0.0,0.0,0.0,0.0,0.0,0.0,0.0,0.0,-0.22615385055541992,0.45230770111083984,9.69410228729248,0.0,0.0,0.0,0.0,0.0,0.0,0.0,0.0,0.0
1646243927.605472,6106,1646243927,605048946,,0.0,0.0,0.0,0.0,0.0,0.0,0.0,0.0,0.0,0.0,0.0,0.0,0.0,0.003929044120013714,-0.018611449748277664,-0.022595571354031563,0.0,0.0,0.0,0.0,0.0,0.0,0.0,0.0,0.0,-0.25846153497695923,0.36076924204826355,9.762307167053223,0.0,0.0,0.0,0.0,0.0,0.0,0.0,0.0,0.0
1646243927.607593,6107,1646243927,607276214,,0.0,0.0,0.0,0.0,0.0,0.0,0.0,0.0,0.0,0.0,0.0,0.0,0.0,-0.009919392876327038,-0.026068301871418953,-0.004486078396439552,0.0,0.0,0.0,0.0,0.0,0.0,0.0,0.0,0.0,-0.20102564990520477,0.05564102530479431,9.588204383850098,0.0,0.0,0.0,0.0,0.0,0.0,0.0,0.0,0.0
1646243927.6099179,6108,1646243927,609459430,,0.0,0.0,0.0,0.0,0.0,0.0,0.0,0.0,0.0,0.0,0.0,0.0,0.0,0.008190101943910122,-0.020741978660225868,0.008297095075249672,0.0,0.0,0.0,0.0,0.0,0.0,0.0,0.0,0.0,-0.2656410336494446,0.36615386605262756,9.995640754699707,0.0,0.0,0.0,0.0,0.0,0.0,0.0,0.0,0.0
1646243927.6122777,6109,1646243927,611695275,,0.0,0.0,0.0,0.0,0.0,0.0,0.0,0.0,0.0,0.0,0.0,0.0,0.0,0.026299597695469856,-0.039916735142469406,0.004036037251353264,0.0,0.0,0.0,0.0,0.0,0.0,0.0,0.0,0.0,-0.2207692414522171,-0.11128205060958862,9.505640983581543,0.0,0.0,0.0,0.0,0.0,0.0,0.0,0.0,0.0
1646243927.6142905,6110,1646243927,613921951,,0.0,0.0,0.0,0.0,0.0,0.0,0.0,0.0,0.0,0.0,0.0,0.0,0.0,0.03162591904401779,-0.05696096643805504,0.01681920886039734,0.0,0.0,0.0,0.0,0.0,0.0,0.0,0.0,0.0,-0.23692308366298676,0.23333333432674408,9.756922721862793,0.0,0.0,0.0,0.0,0.0,0.0,0.0,0.0,0.0
1646243927.616469,6111,1646243927,616103249,,0.0,0.0,0.0,0.0,0.0,0.0,0.0,0.0,0.0,0.0,0.0,0.0,0.0,0.006059573031961918,-0.03032935969531536,-0.01087766420096159,0.0,0.0,0.0,0.0,0.0,0.0,0.0,0.0,0.0,-0.3033333420753479,0.1238461583852768,9.713846206665039,0.0,0.0,0.0,0.0,0.0,0.0,0.0,0.0,0.0
1646243927.6186967,6112,1646243927,618294768,,0.0,0.0,0.0,0.0,0.0,0.0,0.0,0.0,0.0,0.0,0.0,0.0,0.0,0.012451158836483955,-0.028198830783367157,0.010427623987197876,0.0,0.0,0.0,0.0,0.0,0.0,0.0,0.0,0.0,-0.33743590116500854,0.023333333432674408,9.677948951721191,0.0,0.0,0.0,0.0,0.0,0.0,0.0,0.0,0.0
1646243927.620901,6113,1646243927,620502626,,0.0,0.0,0.0,0.0,0.0,0.0,0.0,0.0,0.0,0.0,0.0,0.0,0.0,0.018842745572328568,-0.050569381564855576,-0.013008194044232368,0.0,0.0,0.0,0.0,0.0,0.0,0.0,0.0,0.0,-0.24051281809806824,0.2853846251964569,9.746153831481934,0.0,0.0,0.0,0.0,0.0,0.0,0.0,0.0,0.0
1646243927.623067,6114,1646243927,622706926,,0.0,0.0,0.0,0.0,0.0,0.0,0.0,0.0,0.0,0.0,0.0,0.0,0.0,0.016712216660380363,-0.04311252757906914,0.002970772795379162,0.0,0.0,0.0,0.0,0.0,0.0,0.0,0.0,0.0,-0.15974359214305878,0.023333333432674408,9.870000839233398,0.0,0.0,0.0,0.0,0.0,0.0,0.0,0.0,0.0
1646243927.6252482,6115,1646243927,624918939,,0.0,0.0,0.0,0.0,0.0,0.0,0.0,0.0,0.0,0.0,0.0,0.0,0.0,0.006059573031961918,-0.044177792966365814,0.004036037251353264,0.0,0.0,0.0,0.0,0.0,0.0,0.0,0.0,0.0,-0.2064102590084076,0.42538464069366455,9.785640716552734,0.0,0.0,0.0,0.0,0.0,0.0,0.0,0.0,0.0
1646243927.6286056,6116,1646243927,627128181,,0.0,0.0,0.0,0.0,0.0,0.0,0.0,0.0,0.0,0.0,0.0,0.0,0.0,0.023103805258870125,-0.04524305835366249,0.02747185342013836,0.0,0.0,0.0,0.0,0.0,0.0,0.0,0.0,0.0,-0.16692309081554413,-0.0412820540368557,9.59538459777832,0.0,0.0,0.0,0.0,0.0,0.0,0.0,0.0,0.0
1646243927.6300373,6117,1646243927,629484352,,0.0,0.0,0.0,0.0,0.0,0.0,0.0,0.0,0.0,0.0,0.0,0.0,0.0,-0.0077888634987175465,-0.06867887824773788,0.005101301707327366,0.0,0.0,0.0,0.0,0.0,0.0,0.0,0.0,0.0,-0.19564102590084076,0.3356410562992096,9.821538925170898,0.0,0.0,0.0,0.0,0.0,0.0,0.0,0.0,0.0
1646243927.6319356,6118,1646243927,631676230,,0.0,0.0,0.0,0.0,0.0,0.0,0.0,0.0,0.0,0.0,0.0,0.0,0.0,0.018842745572328568,-0.036720942705869675,0.005101301707327366,0.0,0.0,0.0,0.0,0.0,0.0,0.0,0.0,0.0,-0.11666666716337204,-0.16153846681118011,9.54692268371582,0.0,0.0,0.0,0.0,0.0,0.0,0.0,0.0,0.0
1646243927.6342216,6119,1646243927,633890166,,0.0,0.0,0.0,0.0,0.0,0.0,0.0,0.0,0.0,0.0,0.0,0.0,0.0,0.00712483748793602,-0.04311252757906914,0.03492870554327965,0.0,0.0,0.0,0.0,0.0,0.0,0.0,0.0,0.0,-0.4002564251422882,-0.07000000029802322,9.69410228729248,0.0,0.0,0.0,0.0,0.0,0.0,0.0,0.0,0.0
1646243927.6362972,6120,1646243927,636068296,,0.0,0.0,0.0,0.0,0.0,0.0,0.0,0.0,0.0,0.0,0.0,0.0,0.0,-0.0013972773449495435,-0.039916735142469406,0.011492888443171978,0.0,0.0,0.0,0.0,0.0,0.0,0.0,0.0,0.0,-0.2476923167705536,0.28717949986457825,9.85564136505127,0.0,0.0,0.0,0.0,0.0,0.0,0.0,0.0,0.0
1646243927.6387138,6121,1646243927,638258265,,0.0,0.0,0.0,0.0,0.0,0.0,0.0,0.0,0.0,0.0,0.0,0.0,0.0,-0.0035278063733130693,-0.05589570105075836,0.01681920886039734,0.0,0.0,0.0,0.0,0.0,0.0,0.0,0.0,0.0,-0.14358974993228912,-0.18487180769443512,9.767691612243652,0.0,0.0,0.0,0.0,0.0,0.0,0.0,0.0,0.0
1646243927.6410482,6122,1646243927,640530179,,0.0,0.0,0.0,0.0,0.0,0.0,0.0,0.0,0.0,0.0,0.0,0.0,0.0,-0.014180450700223446,-0.04843885079026222,0.0232107974588871,0.0,0.0,0.0,0.0,0.0,0.0,0.0,0.0,0.0,0.012564103119075298,0.25487178564071655,9.9005126953125,0.0,0.0,0.0,0.0,0.0,0.0,0.0,0.0,0.0
1646243927.6432767,6123,1646243927,642829054,,0.0,0.0,0.0,0.0,0.0,0.0,0.0,0.0,0.0,0.0,0.0,0.0,0.0,-0.017376242205500603,-0.03459041193127632,0.024276060983538628,0.0,0.0,0.0,0.0,0.0,0.0,0.0,0.0,0.0,-0.11846154183149338,-0.016153845936059952,9.624102592468262,0.0,0.0,0.0,0.0,0.0,0.0,0.0,0.0,0.0
1646243927.64532,6124,1646243927,645032045,,0.0,0.0,0.0,0.0,0.0,0.0,0.0,0.0,0.0,0.0,0.0,0.0,0.0,-0.0077888634987175465,-0.017546184360980988,0.04451608657836914,0.0,0.0,0.0,0.0,0.0,0.0,0.0,0.0,0.0,0.03410256281495094,0.3482051491737366,9.767691612243652,0.0,0.0,0.0,0.0,0.0,0.0,0.0,0.0,0.0
1646243927.6476204,6125,1646243927,647285801,,0.0,0.0,0.0,0.0,0.0,0.0,0.0,0.0,0.0,0.0,0.0,0.0,0.0,-0.031224681064486504,-0.047373585402965546,-0.004486078396439552,0.0,0.0,0.0,0.0,0.0,0.0,0.0,0.0,0.0,0.0,0.08615384995937347,9.767691612243652,0.0,0.0,0.0,0.0,0.0,0.0,0.0,0.0,0.0
1646243927.6497989,6126,1646243927,649470261,,0.0,0.0,0.0,0.0,0.0,0.0,0.0,0.0,0.0,0.0,0.0,0.0,0.0,-0.013115186244249344,-0.04204726591706276,0.024276060983538628,0.0,0.0,0.0,0.0,0.0,0.0,0.0,0.0,0.0,0.07179487496614456,0.09153846651315689,9.805384635925293,0.0,0.0,0.0,0.0,0.0,0.0,0.0,0.0,0.0
1646243927.6520622,6127,1646243927,651703848,,0.0,0.0,0.0,0.0,0.0,0.0,0.0,0.0,0.0,0.0,0.0,0.0,0.0,-0.014180450700223446,-0.04311252757906914,0.005101301707327366,0.0,0.0,0.0,0.0,0.0,0.0,0.0,0.0,0.0,0.15256410837173462,0.05205128341913223,9.744359016418457,0.0,0.0,0.0,0.0,0.0,0.0,0.0,0.0,0.0
1646243927.654205,6128,1646243927,653887623,,0.0,0.0,0.0,0.0,0.0,0.0,0.0,0.0,0.0,0.0,0.0,0.0,0.0,-0.023767828941345215,-0.03139462321996689,0.028537116944789886,0.0,0.0,0.0,0.0,0.0,0.0,0.0,0.0,0.0,0.023333333432674408,0.1148717999458313,9.575640678405762,0.0,0.0,0.0,0.0,0.0,0.0,0.0,0.0,0.0
1646243927.6563525,6129,1646243927,656077662,,0.0,0.0,0.0,0.0,0.0,0.0,0.0,0.0,0.0,0.0,0.0,0.0,0.0,-0.02163730002939701,-0.02713356725871563,0.01255815289914608,0.0,0.0,0.0,0.0,0.0,0.0,0.0,0.0,0.0,0.03410256281495094,0.18307693302631378,10.054871559143066,0.0,0.0,0.0,0.0,0.0,0.0,0.0,0.0,0.0
1646243927.6586165,6130,1646243927,658296376,,0.0,0.0,0.0,0.0,0.0,0.0,0.0,0.0,0.0,0.0,0.0,0.0,0.0,-0.023767828941345215,-0.0495041161775589,0.02001500315964222,0.0,0.0,0.0,0.0,0.0,0.0,0.0,0.0,0.0,0.2153846174478531,-0.12923076748847961,9.59000015258789,0.0,0.0,0.0,0.0,0.0,0.0,0.0,0.0,0.0
1646243927.6607935,6131,1646243927,660511851,,0.0,0.0,0.0,0.0,0.0,0.0,0.0,0.0,0.0,0.0,0.0,0.0,0.0,-0.017376242205500603,-0.03139462321996689,0.0008402442326769233,0.0,0.0,0.0,0.0,0.0,0.0,0.0,0.0,0.0,0.19564102590084076,0.18128205835819244,10.038718223571777,0.0,0.0,0.0,0.0,0.0,0.0,0.0,0.0,0.0
1646243927.6631622,6132,1646243927,662735573,,0.0,0.0,0.0,0.0,0.0,0.0,0.0,0.0,0.0,0.0,0.0,0.0,0.0,-0.01844150573015213,-0.05269990861415863,-0.0023555487859994173,0.0,0.0,0.0,0.0,0.0,0.0,0.0,0.0,0.0,0.03589743748307228,-0.15974359214305878,9.636667251586914,0.0,0.0,0.0,0.0,0.0,0.0,0.0,0.0,0.0
1646243927.6652346,6133,1646243927,664963490,,0.0,0.0,0.0,0.0,0.0,0.0,0.0,0.0,0.0,0.0,0.0,0.0,0.0,-0.014180450700223446,-0.05269990861415863,0.014688681811094284,0.0,0.0,0.0,0.0,0.0,0.0,0.0,0.0,0.0,0.23333333432674408,-0.08435897529125214,9.792820930480957,0.0,0.0,0.0,0.0,0.0,0.0,0.0,0.0,0.0
1646243927.6676888,6134,1646243927,667219221,,0.0,0.0,0.0,0.0,0.0,0.0,0.0,0.0,0.0,0.0,0.0,0.0,0.0,-0.016310978680849075,-0.04098200052976608,-0.00022502047067973763,0.0,0.0,0.0,0.0,0.0,0.0,0.0,0.0,0.0,0.36974361538887024,0.03589743748307228,9.55051326751709,0.0,0.0,0.0,0.0,0.0,0.0,0.0,0.0,0.0
1646243927.6707013,6135,1646243927,669408312,,0.0,0.0,0.0,0.0,0.0,0.0,0.0,0.0,0.0,0.0,0.0,0.0,0.0,0.00925536546856165,-0.03245988488197327,0.008297095075249672,0.0,0.0,0.0,0.0,0.0,0.0,0.0,0.0,0.0,0.2028205245733261,0.0412820540368557,9.572051048278809,0.0,0.0,0.0,0.0,0.0,0.0,0.0,0.0,0.0
1646243927.6720672,6136,1646243927,671723674,,0.0,0.0,0.0,0.0,0.0,0.0,0.0,0.0,0.0,0.0,0.0,0.0,0.0,-0.0067235990427434444,-0.02713356725871563,-0.004486078396439552,0.0,0.0,0.0,0.0,0.0,0.0,0.0,0.0,0.0,0.3302564322948456,0.14897435903549194,9.783845901489258,0.0,0.0,0.0,0.0,0.0,0.0,0.0,0.0,0.0
1646243927.6742654,6137,1646243927,673927715,,0.0,0.0,0.0,0.0,0.0,0.0,0.0,0.0,0.0,0.0,0.0,0.0,0.0,0.003929044120013714,-0.029264096170663834,-0.009812399744987488,0.0,0.0,0.0,0.0,0.0,0.0,0.0,0.0,0.0,0.31051284074783325,-0.26384615898132324,9.498461723327637,0.0,0.0,0.0,0.0,0.0,0.0,0.0,0.0,0.0
1646243927.676412,6138,1646243927,676127396,,0.0,0.0,0.0,0.0,0.0,0.0,0.0,0.0,0.0,0.0,0.0,0.0,0.0,0.00925536546856165,-0.01967671327292919,-0.01087766420096159,0.0,0.0,0.0,0.0,0.0,0.0,0.0,0.0,0.0,0.29076921939849854,0.19205129146575928,9.534358978271484,0.0,0.0,0.0,0.0,0.0,0.0,0.0,0.0,0.0
1646243927.6786659,6139,1646243927,678311709,,0.0,0.0,0.0,0.0,0.0,0.0,0.0,0.0,0.0,0.0,0.0,0.0,0.0,-0.009919392876327038,-0.021807242184877396,-0.006616605911403894,0.0,0.0,0.0,0.0,0.0,0.0,0.0,0.0,0.0,0.42897436022758484,-0.26923078298568726,9.577435493469238,0.0,0.0,0.0,0.0,0.0,0.0,0.0,0.0,0.0
1646243927.680733,6140,1646243927,680493638,,0.0,0.0,0.0,0.0,0.0,0.0,0.0,0.0,0.0,0.0,0.0,0.0,0.0,0.0103206317871809,-0.014350391924381256,0.01255815289914608,0.0,0.0,0.0,0.0,0.0,0.0,0.0,0.0,0.0,0.19205129146575928,0.15076923370361328,9.670769691467285,0.0,0.0,0.0,0.0,0.0,0.0,0.0,0.0,0.0
1646243927.6831505,6141,1646243927,682812400,,0.0,0.0,0.0,0.0,0.0,0.0,0.0,0.0,0.0,0.0,0.0,0.0,0.0,-0.016310978680849075,-0.03139462321996689,-0.018334513530135155,0.0,0.0,0.0,0.0,0.0,0.0,0.0,0.0,0.0,0.5115384459495544,-0.2387179583311081,9.390769004821777,0.0,0.0,0.0,0.0,0.0,0.0,0.0,0.0,0.0
1646243927.6852992,6142,1646243927,685017308,,0.0,0.0,0.0,0.0,0.0,0.0,0.0,0.0,0.0,0.0,0.0,0.0,0.0,-0.008854128420352936,-0.0015672193840146065,0.02640658989548683,0.0,0.0,0.0,0.0,0.0,0.0,0.0,0.0,0.0,0.24589744210243225,-0.2943589687347412,9.473333358764648,0.0,0.0,0.0,0.0,0.0,0.0,0.0,0.0,0.0
1646243927.6876652,6143,1646243927,687232342,,0.0,0.0,0.0,0.0,0.0,0.0,0.0,0.0,0.0,0.0,0.0,0.0,0.0,-0.019506771117448807,0.015477010980248451,0.009362359531223774,0.0,0.0,0.0,0.0,0.0,0.0,0.0,0.0,0.0,0.3643589913845062,0.01974359154701233,9.837692260742188,0.0,0.0,0.0,0.0,0.0,0.0,0.0,0.0,0.0
1646243927.6898415,6144,1646243927,689420207,,0.0,0.0,0.0,0.0,0.0,0.0,0.0,0.0,0.0,0.0,0.0,0.0,0.0,-0.0024625419173389673,-0.0005019548698328435,0.009362359531223774,0.0,0.0,0.0,0.0,0.0,0.0,0.0,0.0,0.0,0.44692307710647583,-0.26384615898132324,9.514616012573242,0.0,0.0,0.0,0.0,0.0,0.0,0.0,0.0,0.0
1646243927.6919076,6145,1646243927,691608819,,0.0,0.0,0.0,0.0,0.0,0.0,0.0,0.0,0.0,0.0,0.0,0.0,0.0,0.016712216660380363,0.0037591024301946163,-0.021530307829380035,0.0,0.0,0.0,0.0,0.0,0.0,0.0,0.0,0.0,0.48461538553237915,-0.06820512562990189,9.780256271362305,0.0,0.0,0.0,0.0,0.0,0.0,0.0,0.0,0.0
1646243927.694192,6146,1646243927,693802496,,0.0,0.0,0.0,0.0,0.0,0.0,0.0,0.0,0.0,0.0,0.0,0.0,0.0,-0.017376242205500603,-0.006893542595207691,0.009362359531223774,0.0,0.0,0.0,0.0,0.0,0.0,0.0,0.0,0.0,0.4271794855594635,-0.36974361538887024,9.449999809265137,0.0,0.0,0.0,0.0,0.0,0.0,0.0,0.0,0.0
1646243927.6964645,6147,1646243927,696084768,,0.0,0.0,0.0,0.0,0.0,0.0,0.0,0.0,0.0,0.0,0.0,0.0,0.0,-0.01098465733230114,0.011215953156352043,0.011492888443171978,0.0,0.0,0.0,0.0,0.0,0.0,0.0,0.0,0.0,0.3805128335952759,0.07179487496614456,9.690512657165527,0.0,0.0,0.0,0.0,0.0,0.0,0.0,0.0,0.0
1646243927.6988246,6148,1646243927,698354105,,0.0,0.0,0.0,0.0,0.0,0.0,0.0,0.0,0.0,0.0,0.0,0.0,0.0,0.0028637798968702555,-0.0015672193840146065,-0.018334513530135155,0.0,0.0,0.0,0.0,0.0,0.0,0.0,0.0,0.0,0.6300000548362732,-0.31589746475219727,9.327948570251465,0.0,0.0,0.0,0.0,0.0,0.0,0.0,0.0,0.0
1646243927.7009196,6149,1646243927,700602039,,0.0,0.0,0.0,0.0,0.0,0.0,0.0,0.0,0.0,0.0,0.0,0.0,0.0,-0.028028886765241623,0.01441174652427435,0.006166566163301468,0.0,0.0,0.0,0.0,0.0,0.0,0.0,0.0,0.0,0.5743589997291565,-0.17230769991874695,9.803589820861816,0.0,0.0,0.0,0.0,0.0,0.0,0.0,0.0,0.0
1646243927.7034726,6150,1646243927,702910283,,0.0,0.0,0.0,0.0,0.0,0.0,0.0,0.0,0.0,0.0,0.0,0.0,0.0,-0.0013972773449495435,0.013346482068300247,-0.0162039864808321,0.0,0.0,0.0,0.0,0.0,0.0,0.0,0.0,0.0,0.4128205180168152,-0.032307691872119904,9.685128211975098,0.0,0.0,0.0,0.0,0.0,0.0,0.0,0.0,0.0
1646243927.7055392,6151,1646243927,705114155,,0.0,0.0,0.0,0.0,0.0,0.0,0.0,0.0,0.0,0.0,0.0,0.0,0.0,-0.0013972773449495435,0.021868597716093063,0.017884474247694016,0.0,0.0,0.0,0.0,0.0,0.0,0.0,0.0,0.0,0.6228205561637878,-0.28717949986457825,9.572051048278809,0.0,0.0,0.0,0.0,0.0,0.0,0.0,0.0,0.0
1646243927.7077937,6152,1646243927,707336109,,0.0,0.0,0.0,0.0,0.0,0.0,0.0,0.0,0.0,0.0,0.0,0.0,0.0,-0.017376242205500603,0.00588963134214282,-0.028987158089876175,0.0,0.0,0.0,0.0,0.0,0.0,0.0,0.0,0.0,0.46666666865348816,0.1148717999458313,9.785640716552734,0.0,0.0,0.0,0.0,0.0,0.0,0.0,0.0,0.0
1646243927.7100227,6153,1646243927,709576921,,0.0,0.0,0.0,0.0,0.0,0.0,0.0,0.0,0.0,0.0,0.0,0.0,0.0,0.003929044120013714,0.02293386124074459,-0.008747135289013386,0.0,0.0,0.0,0.0,0.0,0.0,0.0,0.0,0.0,0.5510256290435791,-0.3805128335952759,9.703076362609863,0.0,0.0,0.0,0.0,0.0,0.0,0.0,0.0,0.0
1646243927.712969,6154,1646243927,711745500,,0.0,0.0,0.0,0.0,0.0,0.0,0.0,0.0,0.0,0.0,0.0,0.0,0.0,0.00712483748793602,0.01654227450489998,-0.01087766420096159,0.0,0.0,0.0,0.0,0.0,0.0,0.0,0.0,0.0,0.4128205180168152,0.0735897421836853,9.828718185424805,0.0,0.0,0.0,0.0,0.0,0.0,0.0,0.0,0.0
1646243927.7143114,6155,1646243927,714001816,,0.0,0.0,0.0,0.0,0.0,0.0,0.0,0.0,0.0,0.0,0.0,0.0,0.0,0.008190101943910122,0.027194919064641,0.010427623987197876,0.0,0.0,0.0,0.0,0.0,0.0,0.0,0.0,0.0,0.2979487180709839,-0.3212820589542389,9.629487037658691,0.0,0.0,0.0,0.0,0.0,0.0,0.0,0.0,0.0
1646243927.7166507,6156,1646243927,716257924,,0.0,0.0,0.0,0.0,0.0,0.0,0.0,0.0,0.0,0.0,0.0,0.0,0.0,0.0007332512177526951,0.02612965553998947,-0.0162039864808321,0.0,0.0,0.0,0.0,0.0,0.0,0.0,0.0,0.0,0.4720512926578522,-0.1884615421295166,9.808974266052246,0.0,0.0,0.0,0.0,0.0,0.0,0.0,0.0,0.0
1646243927.7187762,6157,1646243927,718487166,,0.0,0.0,0.0,0.0,0.0,0.0,0.0,0.0,0.0,0.0,0.0,0.0,0.0,0.001798515673726797,0.02293386124074459,-0.018334513530135155,0.0,0.0,0.0,0.0,0.0,0.0,0.0,0.0,0.0,0.4361538589000702,-0.05564102530479431,9.572051048278809,0.0,0.0,0.0,0.0,0.0,0.0,0.0,0.0,0.0
1646243927.7209978,6158,1646243927,720688829,,0.0,0.0,0.0,0.0,0.0,0.0,0.0,0.0,0.0,0.0,0.0,0.0,0.0,0.015646953135728836,0.032521240413188934,0.018949739634990692,0.0,0.0,0.0,0.0,0.0,0.0,0.0,0.0,0.0,0.44871795177459717,-0.06282051652669907,9.929230690002441,0.0,0.0,0.0,0.0,0.0,0.0,0.0,0.0,0.0
1646243927.7232456,6159,1646243927,722890406,,0.0,0.0,0.0,0.0,0.0,0.0,0.0,0.0,0.0,0.0,0.0,0.0,0.0,0.00712483748793602,0.043173886835575104,-0.017269250005483627,0.0,0.0,0.0,0.0,0.0,0.0,0.0,0.0,0.0,0.3571794927120209,0.13641025125980377,9.819743156433105,0.0,0.0,0.0,0.0,0.0,0.0,0.0,0.0,0.0
1646243927.7254004,6160,1646243927,725076034,,0.0,0.0,0.0,0.0,0.0,0.0,0.0,0.0,0.0,0.0,0.0,0.0,0.0,0.019908009096980095,0.04743494465947151,-0.01407345850020647,0.0,0.0,0.0,0.0,0.0,0.0,0.0,0.0,0.0,0.26923078298568726,-0.25487178564071655,9.794615745544434,0.0,0.0,0.0,0.0,0.0,0.0,0.0,0.0,0.0
1646243927.727664,6161,1646243927,727312283,,0.0,0.0,0.0,0.0,0.0,0.0,0.0,0.0,0.0,0.0,0.0,0.0,0.0,0.0028637798968702555,0.038912829011678696,0.006166566163301468,0.0,0.0,0.0,0.0,0.0,0.0,0.0,0.0,0.0,0.22256410121917725,0.14179487526416779,10.027949333190918,0.0,0.0,0.0,0.0,0.0,0.0,0.0,0.0,0.0
1646243927.7298722,6162,1646243927,729517140,,0.0,0.0,0.0,0.0,0.0,0.0,0.0,0.0,0.0,0.0,0.0,0.0,0.0,0.00925536546856165,0.03784756362438202,-0.0076818703673779964,0.0,0.0,0.0,0.0,0.0,0.0,0.0,0.0,0.0,0.2566666603088379,-0.11128205060958862,9.95974349975586,0.0,0.0,0.0,0.0,0.0,0.0,0.0,0.0,0.0
1646243927.7322068,6163,1646243927,731728211,,0.0,0.0,0.0,0.0,0.0,0.0,0.0,0.0,0.0,0.0,0.0,0.0,0.0,-0.016310978680849075,0.058087583631277084,0.005101301707327366,0.0,0.0,0.0,0.0,0.0,0.0,0.0,0.0,0.0,0.40205129981040955,0.23692308366298676,9.8610258102417,0.0,0.0,0.0,0.0,0.0,0.0,0.0,0.0,0.0
1646243927.734254,6164,1646243927,733941818,,0.0,0.0,0.0,0.0,0.0,0.0,0.0,0.0,0.0,0.0,0.0,0.0,0.0,0.001798515673726797,0.04210862144827843,-0.01407345850020647,0.0,0.0,0.0,0.0,0.0,0.0,0.0,0.0,0.0,0.13461539149284363,0.09153846651315689,10.069230079650879,0.0,0.0,0.0,0.0,0.0,0.0,0.0,0.0,0.0
1646243927.7365386,6165,1646243927,736181532,,0.0,0.0,0.0,0.0,0.0,0.0,0.0,0.0,0.0,0.0,0.0,0.0,0.0,0.001798515673726797,0.06447917222976685,0.005101301707327366,0.0,0.0,0.0,0.0,0.0,0.0,0.0,0.0,0.0,0.07897436618804932,-0.08615384995937347,9.721025466918945,0.0,0.0,0.0,0.0,0.0,0.0,0.0,0.0,0.0
1646243927.7387114,6166,1646243927,738376975,,0.0,0.0,0.0,0.0,0.0,0.0,0.0,0.0,0.0,0.0,0.0,0.0,0.0,-0.020572034642100334,0.05595706030726433,-0.022595571354031563,0.0,0.0,0.0,0.0,0.0,0.0,0.0,0.0,0.0,0.21358974277973175,0.08794872462749481,9.977692604064941,0.0,0.0,0.0,0.0,0.0,0.0,0.0,0.0,0.0
1646243927.740887,6167,1646243927,740566673,,0.0,0.0,0.0,0.0,0.0,0.0,0.0,0.0,0.0,0.0,0.0,0.0,0.0,-0.0035278063733130693,0.04956547170877457,0.035993970930576324,0.0,0.0,0.0,0.0,0.0,0.0,0.0,0.0,0.0,0.07897436618804932,-0.09333333373069763,9.841282844543457,0.0,0.0,0.0,0.0,0.0,0.0,0.0,0.0,0.0
1646243927.7431047,6168,1646243927,742740801,,0.0,0.0,0.0,0.0,0.0,0.0,0.0,0.0,0.0,0.0,0.0,0.0,0.0,-0.0035278063733130693,0.038912829011678696,-0.024726100265979767,0.0,0.0,0.0,0.0,0.0,0.0,0.0,0.0,0.0,0.19564102590084076,0.06102564185857773,10.114103317260742,0.0,0.0,0.0,0.0,0.0,0.0,0.0,0.0,0.0
1646243927.7453446,6169,1646243927,744955547,,0.0,0.0,0.0,0.0,0.0,0.0,0.0,0.0,0.0,0.0,0.0,0.0,0.0,-0.02163730002939701,0.05063073709607124,-0.011942928656935692,0.0,0.0,0.0,0.0,0.0,0.0,0.0,0.0,0.0,0.15974359214305878,0.00897435937076807,9.733589172363281,0.0,0.0,0.0,0.0,0.0,0.0,0.0,0.0,0.0
1646243927.7475576,6170,1646243927,747171868,,0.0,0.0,0.0,0.0,0.0,0.0,0.0,0.0,0.0,0.0,0.0,0.0,0.0,-0.03335520997643471,0.06234864145517349,0.022145532071590424,0.0,0.0,0.0,0.0,0.0,0.0,0.0,0.0,0.0,0.27820512652397156,0.29615384340286255,9.681538581848145,0.0,0.0,0.0,0.0,0.0,0.0,0.0,0.0,0.0
1646243927.749717,6171,1646243927,749385339,,0.0,0.0,0.0,0.0,0.0,0.0,0.0,0.0,0.0,0.0,0.0,0.0,0.0,-0.012049921788275242,0.04210862144827843,-0.018334513530135155,0.0,0.0,0.0,0.0,0.0,0.0,0.0,0.0,0.0,0.19564102590084076,-0.17230769991874695,9.764102935791016,0.0,0.0,0.0,0.0,0.0,0.0,0.0,0.0,0.0
1646243927.7520313,6172,1646243927,751604146,,0.0,0.0,0.0,0.0,0.0,0.0,0.0,0.0,0.0,0.0,0.0,0.0,0.0,-0.028028886765241623,0.046369679272174835,0.025341326370835304,0.0,0.0,0.0,0.0,0.0,0.0,0.0,0.0,0.0,0.25487178564071655,0.003589743748307228,9.9884614944458,0.0,0.0,0.0,0.0,0.0,0.0,0.0,0.0,0.0
1646243927.7549496,6173,1646243927,753812152,,0.0,0.0,0.0,0.0,0.0,0.0,0.0,0.0,0.0,0.0,0.0,0.0,0.0,-0.02909415028989315,0.05702231824398041,-0.022595571354031563,0.0,0.0,0.0,0.0,0.0,0.0,0.0,0.0,0.0,0.10051282495260239,0.09153846651315689,9.85564136505127,0.0,0.0,0.0,0.0,0.0,0.0,0.0,0.0,0.0
1646243927.7563047,6174,1646243927,756045434,,0.0,0.0,0.0,0.0,0.0,0.0,0.0,0.0,0.0,0.0,0.0,0.0,0.0,-0.022702563554048538,0.0016285729361698031,0.002970772795379162,0.0,0.0,0.0,0.0,0.0,0.0,0.0,0.0,0.0,0.06820512562990189,-0.18666666746139526,9.730000495910645,0.0,0.0,0.0,0.0,0.0,0.0,0.0,0.0,0.0
1646243927.758532,6175,1646243927,758184189,,0.0,0.0,0.0,0.0,0.0,0.0,0.0,0.0,0.0,0.0,0.0,0.0,0.0,-0.004593071062117815,0.04743494465947151,-0.0076818703673779964,0.0,0.0,0.0,0.0,0.0,0.0,0.0,0.0,0.0,0.016153845936059952,0.3625641167163849,10.035127639770508,0.0,0.0,0.0,0.0,0.0,0.0,0.0,0.0,0.0
1646243927.760817,6176,1646243927,760410058,,0.0,0.0,0.0,0.0,0.0,0.0,0.0,0.0,0.0,0.0,0.0,0.0,0.0,0.003929044120013714,0.04956547170877457,0.008297095075249672,0.0,0.0,0.0,0.0,0.0,0.0,0.0,0.0,0.0,0.14358974993228912,-0.11846154183149338,9.868205070495605,0.0,0.0,0.0,0.0,0.0,0.0,0.0,0.0,0.0
1646243927.7629576,6177,1646243927,762617073,,0.0,0.0,0.0,0.0,0.0,0.0,0.0,0.0,0.0,0.0,0.0,0.0,0.0,0.0028637798968702555,0.027194919064641,-0.039639800786972046,0.0,0.0,0.0,0.0,0.0,0.0,0.0,0.0,0.0,-0.026923077180981636,0.3069230914115906,9.972307205200195,0.0,0.0,0.0,0.0,0.0,0.0,0.0,0.0,0.0
1646243927.7651792,6178,1646243927,764804119,,0.0,0.0,0.0,0.0,0.0,0.0,0.0,0.0,0.0,0.0,0.0,0.0,0.0,0.001798515673726797,0.03678229823708534,-0.0023555487859994173,0.0,0.0,0.0,0.0,0.0,0.0,0.0,0.0,0.0,-0.05025641247630119,-0.08076923340559006,9.726409912109375,0.0,0.0,0.0,0.0,0.0,0.0,0.0,0.0,0.0
1646243927.7673788,6179,1646243927,767007133,,0.0,0.0,0.0,0.0,0.0,0.0,0.0,0.0,0.0,0.0,0.0,0.0,0.0,-0.0024625419173389673,0.04743494465947151,0.006166566163301468,0.0,0.0,0.0,0.0,0.0,0.0,0.0,0.0,0.0,0.046666666865348816,0.09153846651315689,9.85564136505127,0.0,0.0,0.0,0.0,0.0,0.0,0.0,0.0,0.0
1646243927.7699182,6180,1646243927,769207510,,0.0,0.0,0.0,0.0,0.0,0.0,0.0,0.0,0.0,0.0,0.0,0.0,0.0,0.03375644609332085,0.02293386124074459,-0.009812399744987488,0.0,0.0,0.0,0.0,0.0,0.0,0.0,0.0,0.0,-0.06461538374423981,0.5133333206176758,10.045896530151367,0.0,0.0,0.0,0.0,0.0,0.0,0.0,0.0,0.0
1646243927.771773,6181,1646243927,771439463,,0.0,0.0,0.0,0.0,0.0,0.0,0.0,0.0,0.0,0.0,0.0,0.0,0.0,0.004994308575987816,0.035717036575078964,-0.006616605911403894,0.0,0.0,0.0,0.0,0.0,0.0,0.0,0.0,0.0,-0.003589743748307228,-0.0735897421836853,9.803589820861816,0.0,0.0,0.0,0.0,0.0,0.0,0.0,0.0,0.0
1646243927.7739196,6182,1646243927,773630213,,0.0,0.0,0.0,0.0,0.0,0.0,0.0,0.0,0.0,0.0,0.0,0.0,0.0,0.008190101943910122,0.046369679272174835,0.0008402442326769233,0.0,0.0,0.0,0.0,0.0,0.0,0.0,0.0,0.0,-0.12025640904903412,0.43794873356819153,10.078205108642578,0.0,0.0,0.0,0.0,0.0,0.0,0.0,0.0,0.0
1646243927.776302,6183,1646243927,775883407,,0.0,0.0,0.0,0.0,0.0,0.0,0.0,0.0,0.0,0.0,0.0,0.0,0.0,0.006059573031961918,0.025064390152692795,0.010427623987197876,0.0,0.0,0.0,0.0,0.0,0.0,0.0,0.0,0.0,-0.06461538374423981,-0.11846154183149338,9.615128517150879,0.0,0.0,0.0,0.0,0.0,0.0,0.0,0.0,0.0
1646243927.7785456,6184,1646243927,778126349,,0.0,0.0,0.0,0.0,0.0,0.0,0.0,0.0,0.0,0.0,0.0,0.0,0.0,0.008190101943910122,0.03465176746249199,-0.006616605911403894,0.0,0.0,0.0,0.0,0.0,0.0,0.0,0.0,0.0,-0.27282050251960754,0.09512820839881897,9.887948036193848,0.0,0.0,0.0,0.0,0.0,0.0,0.0,0.0,0.0
1646243927.780652,6185,1646243927,780362289,,0.0,0.0,0.0,0.0,0.0,0.0,0.0,0.0,0.0,0.0,0.0,0.0,0.0,0.023103805258870125,0.0005633095279335976,-0.031117688864469528,0.0,0.0,0.0,0.0,0.0,0.0,0.0,0.0,0.0,-0.3500000238418579,0.2746153771877289,9.767691612243652,0.0,0.0,0.0,0.0,0.0,0.0,0.0,0.0,0.0
1646243927.7828977,6186,1646243927,782559336,,0.0,0.0,0.0,0.0,0.0,0.0,0.0,0.0,0.0,0.0,0.0,0.0,0.0,0.008190101943910122,0.011215953156352043,0.02001500315964222,0.0,0.0,0.0,0.0,0.0,0.0,0.0,0.0,0.0,-0.2710256576538086,0.14358974993228912,10.067436218261719,0.0,0.0,0.0,0.0,0.0,0.0,0.0,0.0,0.0
1646243927.785131,6187,1646243927,784754227,,0.0,0.0,0.0,0.0,0.0,0.0,0.0,0.0,0.0,0.0,0.0,0.0,0.0,-0.0013972773449495435,0.01973806880414486,-0.006616605911403894,0.0,0.0,0.0,0.0,0.0,0.0,0.0,0.0,0.0,-0.2853846251964569,0.30153846740722656,9.710256576538086,0.0,0.0,0.0,0.0,0.0,0.0,0.0,0.0,0.0
1646243927.7873576,6188,1646243927,786967366,,0.0,0.0,0.0,0.0,0.0,0.0,0.0,0.0,0.0,0.0,0.0,0.0,0.0,0.016712216660380363,0.0037591024301946163,-0.0023555487859994173,0.0,0.0,0.0,0.0,0.0,0.0,0.0,0.0,0.0,-0.21717949211597443,-0.12743589282035828,9.765897750854492,0.0,0.0,0.0,0.0,0.0,0.0,0.0,0.0,0.0
1646243927.789433,6189,1646243927,789151821,,0.0,0.0,0.0,0.0,0.0,0.0,0.0,0.0,0.0,0.0,0.0,0.0,0.0,-0.009919392876327038,0.0026938372757285833,0.01255815289914608,0.0,0.0,0.0,0.0,0.0,0.0,0.0,0.0,0.0,-0.4056410491466522,0.5133333206176758,9.712051391601562,0.0,0.0,0.0,0.0,0.0,0.0,0.0,0.0,0.0
1646243927.7917974,6190,1646243927,791400928,,0.0,0.0,0.0,0.0,0.0,0.0,0.0,0.0,0.0,0.0,0.0,0.0,0.0,-0.0035278063733130693,0.0026938372757285833,-0.0012902843300253153,0.0,0.0,0.0,0.0,0.0,0.0,0.0,0.0,0.0,-0.3087179660797119,0.25128206610679626,9.674358367919922,0.0,0.0,0.0,0.0,0.0,0.0,0.0,0.0,0.0
1646243927.7940896,6191,1646243927,793648683,,0.0,0.0,0.0,0.0,0.0,0.0,0.0,0.0,0.0,0.0,0.0,0.0,0.0,-0.0077888634987175465,-0.005828278139233589,-0.0162039864808321,0.0,0.0,0.0,0.0,0.0,0.0,0.0,0.0,0.0,-0.3087179660797119,0.24948717653751373,9.787436485290527,0.0,0.0,0.0,0.0,0.0,0.0,0.0,0.0,0.0
1646243927.7973063,6192,1646243927,795865270,,0.0,0.0,0.0,0.0,0.0,0.0,0.0,0.0,0.0,0.0,0.0,0.0,0.0,-0.01098465733230114,-0.015415656380355358,-0.011942928656935692,0.0,0.0,0.0,0.0,0.0,0.0,0.0,0.0,0.0,-0.28358975052833557,0.15435898303985596,9.751538276672363,0.0,0.0,0.0,0.0,0.0,0.0,0.0,0.0,0.0
1646243927.7984288,6193,1646243927,798064259,,0.0,0.0,0.0,0.0,0.0,0.0,0.0,0.0,0.0,0.0,0.0,0.0,0.0,-0.015245715156197548,0.0005633095279335976,0.014688681811094284,0.0,0.0,0.0,0.0,0.0,0.0,0.0,0.0,0.0,-0.3571794927120209,0.05025641247630119,9.746153831481934,0.0,0.0,0.0,0.0,0.0,0.0,0.0,0.0,0.0
1646243927.8009784,6194,1646243927,800256948,,0.0,0.0,0.0,0.0,0.0,0.0,0.0,0.0,0.0,0.0,0.0,0.0,0.0,-0.004593071062117815,-0.005828278139233589,-0.006616605911403894,0.0,0.0,0.0,0.0,0.0,0.0,0.0,0.0,0.0,-0.4217948913574219,0.3446153998374939,9.85564136505127,0.0,0.0,0.0,0.0,0.0,0.0,0.0,0.0,0.0
1646243927.8028293,6195,1646243927,802458610,,0.0,0.0,0.0,0.0,0.0,0.0,0.0,0.0,0.0,0.0,0.0,0.0,0.0,-0.0013972773449495435,-0.015415656380355358,0.018949739634990692,0.0,0.0,0.0,0.0,0.0,0.0,0.0,0.0,0.0,-0.2746153771877289,0.003589743748307228,9.518204689025879,0.0,0.0,0.0,0.0,0.0,0.0,0.0,0.0,0.0
1646243927.8053293,6196,1646243927,804803623,,0.0,0.0,0.0,0.0,0.0,0.0,0.0,0.0,0.0,0.0,0.0,0.0,0.0,0.001798515673726797,-0.017546184360980988,-0.004486078396439552,0.0,0.0,0.0,0.0,0.0,0.0,0.0,0.0,0.0,-0.36974361538887024,0.18128205835819244,9.834102630615234,0.0,0.0,0.0,0.0,0.0,0.0,0.0,0.0,0.0
1646243927.8074799,6197,1646243927,807062282,,0.0,0.0,0.0,0.0,0.0,0.0,0.0,0.0,0.0,0.0,0.0,0.0,0.0,-0.0024625419173389673,-0.03245988488197327,-0.0012902843300253153,0.0,0.0,0.0,0.0,0.0,0.0,0.0,0.0,0.0,-0.28358975052833557,0.28179487586021423,9.685128211975098,0.0,0.0,0.0,0.0,0.0,0.0,0.0,0.0,0.0
1646243927.809707,6198,1646243927,809253430,,0.0,0.0,0.0,0.0,0.0,0.0,0.0,0.0,0.0,0.0,0.0,0.0,0.0,0.012451158836483955,-0.02287250943481922,-0.0076818703673779964,0.0,0.0,0.0,0.0,0.0,0.0,0.0,0.0,0.0,-0.3320513069629669,0.11307692527770996,9.622307777404785,0.0,0.0,0.0,0.0,0.0,0.0,0.0,0.0,0.0
1646243927.811863,6199,1646243927,811443813,,0.0,0.0,0.0,0.0,0.0,0.0,0.0,0.0,0.0,0.0,0.0,0.0,0.0,0.00712483748793602,-0.03032935969531536,-0.0076818703673779964,0.0,0.0,0.0,0.0,0.0,0.0,0.0,0.0,0.0,-0.2441025674343109,0.09333333373069763,9.807180404663086,0.0,0.0,0.0,0.0,0.0,0.0,0.0,0.0,0.0
1646243927.814079,6200,1646243927,813687149,,0.0,0.0,0.0,0.0,0.0,0.0,0.0,0.0,0.0,0.0,0.0,0.0,0.0,0.015646953135728836,-0.04098200052976608,0.043450821191072464,0.0,0.0,0.0,0.0,0.0,0.0,0.0,0.0,0.0,-0.26025640964508057,0.33743590116500854,9.787436485290527,0.0,0.0,0.0,0.0,0.0,0.0,0.0,0.0,0.0
1646243927.8162496,6201,1646243927,815872434,,0.0,0.0,0.0,0.0,0.0,0.0,0.0,0.0,0.0,0.0,0.0,0.0,0.0,0.0028637798968702555,-0.013285127468407154,-0.01407345850020647,0.0,0.0,0.0,0.0,0.0,0.0,0.0,0.0,0.0,-0.3123077154159546,0.28179487586021423,9.9005126953125,0.0,0.0,0.0,0.0,0.0,0.0,0.0,0.0,0.0
1646243927.8188167,6202,1646243927,818526912,,0.0,0.0,0.0,0.0,0.0,0.0,0.0,0.0,0.0,0.0,0.0,0.0,0.0,0.03375644609332085,-0.04098200052976608,0.010427623987197876,0.0,0.0,0.0,0.0,0.0,0.0,0.0,0.0,0.0,-0.3625641167163849,-0.06461538374423981,9.577435493469238,0.0,0.0,0.0,0.0,0.0,0.0,0.0,0.0,0.0
1646243927.8212311,6203,1646243927,820973928,,0.0,0.0,0.0,0.0,0.0,0.0,0.0,0.0,0.0,0.0,0.0,0.0,0.0,-0.0067235990427434444,-0.02713356725871563,0.029602382332086563,0.0,0.0,0.0,0.0,0.0,0.0,0.0,0.0,0.0,-0.20102564990520477,-0.05384615436196327,9.974102020263672,0.0,0.0,0.0,0.0,0.0,0.0,0.0,0.0,0.0
1646243927.8236313,6204,1646243927,823218860,,0.0,0.0,0.0,0.0,0.0,0.0,0.0,0.0,0.0,0.0,0.0,0.0,0.0,0.03482171148061752,-0.02287250943481922,-0.005551342852413654,0.0,0.0,0.0,0.0,0.0,0.0,0.0,0.0,0.0,-0.2476923167705536,0.19205129146575928,9.651025772094727,0.0,0.0,0.0,0.0,0.0,0.0,0.0,0.0,0.0
1646243927.8259609,6205,1646243927,825529062,,0.0,0.0,0.0,0.0,0.0,0.0,0.0,0.0,0.0,0.0,0.0,0.0,0.0,0.024169068783521652,-0.05376517400145531,0.018949739634990692,0.0,0.0,0.0,0.0,0.0,0.0,0.0,0.0,0.0,-0.2441025674343109,-0.11128205060958862,10.04769229888916,0.0,0.0,0.0,0.0,0.0,0.0,0.0,0.0,0.0
1646243927.8282514,6206,1646243927,827859279,,0.0,0.0,0.0,0.0,0.0,0.0,0.0,0.0,0.0,0.0,0.0,0.0,0.0,0.013516423292458057,-0.035655677318573,0.01255815289914608,0.0,0.0,0.0,0.0,0.0,0.0,0.0,0.0,0.0,-0.3069230914115906,0.2674359083175659,9.90410327911377,0.0,0.0,0.0,0.0,0.0,0.0,0.0,0.0,0.0
1646243927.8305306,6207,1646243927,830121030,,0.0,0.0,0.0,0.0,0.0,0.0,0.0,0.0,0.0,0.0,0.0,0.0,0.0,0.024169068783521652,-0.047373585402965546,0.022145532071590424,0.0,0.0,0.0,0.0,0.0,0.0,0.0,0.0,0.0,-0.14358974993228912,-0.08076923340559006,9.65999984741211,0.0,0.0,0.0,0.0,0.0,0.0,0.0,0.0,0.0
1646243927.8327076,6208,1646243927,832357592,,0.0,0.0,0.0,0.0,0.0,0.0,0.0,0.0,0.0,0.0,0.0,0.0,0.0,0.0007332512177526951,-0.017546184360980988,0.03492870554327965,0.0,0.0,0.0,0.0,0.0,0.0,0.0,0.0,0.0,-0.07897436618804932,0.2746153771877289,9.74794864654541,0.0,0.0,0.0,0.0,0.0,0.0,0.0,0.0,0.0
1646243927.8347812,6209,1646243927,834535548,,0.0,0.0,0.0,0.0,0.0,0.0,0.0,0.0,0.0,0.0,0.0,0.0,0.0,-0.0024625419173389673,-0.050569381564855576,0.032798174768686295,0.0,0.0,0.0,0.0,0.0,0.0,0.0,0.0,0.0,-0.2387179583311081,-0.03589743748307228,9.68871784210205,0.0,0.0,0.0,0.0,0.0,0.0,0.0,0.0,0.0
1646243927.837002,6210,1646243927,836732192,,0.0,0.0,0.0,0.0,0.0,0.0,0.0,0.0,0.0,0.0,0.0,0.0,0.0,0.019908009096980095,-0.03885146975517273,-0.0023555487859994173,0.0,0.0,0.0,0.0,0.0,0.0,0.0,0.0,0.0,-0.30153846740722656,0.35179489850997925,9.783845901489258,0.0,0.0,0.0,0.0,0.0,0.0,0.0,0.0,0.0
1646243927.8403902,6211,1646243927,838889974,,0.0,0.0,0.0,0.0,0.0,0.0,0.0,0.0,0.0,0.0,0.0,0.0,0.0,-0.008854128420352936,-0.04098200052976608,0.013623417355120182,0.0,0.0,0.0,0.0,0.0,0.0,0.0,0.0,0.0,-0.1328205168247223,0.16692309081554413,10.031538009643555,0.0,0.0,0.0,0.0,0.0,0.0,0.0,0.0,0.0
1646243927.8414898,6212,1646243927,841083434,,0.0,0.0,0.0,0.0,0.0,0.0,0.0,0.0,0.0,0.0,0.0,0.0,0.0,-0.020572034642100334,-0.036720942705869675,0.028537116944789886,0.0,0.0,0.0,0.0,0.0,0.0,0.0,0.0,0.0,-0.07897436618804932,-0.23333333432674408,9.868205070495605,0.0,0.0,0.0,0.0,0.0,0.0,0.0,0.0,0.0
1646243927.8434877,6213,1646243927,843295583,,0.0,0.0,0.0,0.0,0.0,0.0,0.0,0.0,0.0,0.0,0.0,0.0,0.0,-0.005658335518091917,-0.050569381564855576,0.021080268546938896,0.0,0.0,0.0,0.0,0.0,0.0,0.0,0.0,0.0,-0.19564102590084076,0.16153846681118011,10.080000877380371,0.0,0.0,0.0,0.0,0.0,0.0,0.0,0.0,0.0
1646243927.84588,6214,1646243927,845526135,,0.0,0.0,0.0,0.0,0.0,0.0,0.0,0.0,0.0,0.0,0.0,0.0,0.0,-0.03868153318762779,-0.03778620809316635,0.035993970930576324,0.0,0.0,0.0,0.0,0.0,0.0,0.0,0.0,0.0,-0.09153846651315689,-0.23153845965862274,9.604358673095703,0.0,0.0,0.0,0.0,0.0,0.0,0.0,0.0,0.0
1646243927.8481326,6215,1646243927,847748068,,0.0,0.0,0.0,0.0,0.0,0.0,0.0,0.0,0.0,0.0,0.0,0.0,0.0,0.004994308575987816,-0.03139462321996689,0.018949739634990692,0.0,0.0,0.0,0.0,0.0,0.0,0.0,0.0,0.0,0.003589743748307228,0.1741025745868683,9.873589515686035,0.0,0.0,0.0,0.0,0.0,0.0,0.0,0.0,0.0
1646243927.8503091,6216,1646243927,849968952,,0.0,0.0,0.0,0.0,0.0,0.0,0.0,0.0,0.0,0.0,0.0,0.0,0.0,-0.014180450700223446,-0.0676136165857315,0.014688681811094284,0.0,0.0,0.0,0.0,0.0,0.0,0.0,0.0,0.0,0.10769230872392654,-0.07000000029802322,9.588204383850098,0.0,0.0,0.0,0.0,0.0,0.0,0.0,0.0,0.0
1646243927.852491,6217,1646243927,852189903,,0.0,0.0,0.0,0.0,0.0,0.0,0.0,0.0,0.0,0.0,0.0,0.0,0.0,-0.03335520997643471,-0.026068301871418953,0.01681920886039734,0.0,0.0,0.0,0.0,0.0,0.0,0.0,0.0,0.0,0.13461539149284363,0.2064102590084076,9.642051696777344,0.0,0.0,0.0,0.0,0.0,0.0,0.0,0.0,0.0
1646243927.8547266,6218,1646243927,854393284,,0.0,0.0,0.0,0.0,0.0,0.0,0.0,0.0,0.0,0.0,0.0,0.0,0.0,-0.016310978680849075,-0.06015676259994507,-0.011942928656935692,0.0,0.0,0.0,0.0,0.0,0.0,0.0,0.0,0.0,-0.012564103119075298,-0.1382051259279251,9.622307777404785,0.0,0.0,0.0,0.0,0.0,0.0,0.0,0.0,0.0
1646243927.8569179,6219,1646243927,856568970,,0.0,0.0,0.0,0.0,0.0,0.0,0.0,0.0,0.0,0.0,0.0,0.0,0.0,-0.013115186244249344,-0.009024071507155895,0.017884474247694016,0.0,0.0,0.0,0.0,0.0,0.0,0.0,0.0,0.0,0.07717949151992798,-0.1741025745868683,9.557692527770996,0.0,0.0,0.0,0.0,0.0,0.0,0.0,0.0,0.0
1646243927.8589828,6220,1646243927,858752811,,0.0,0.0,0.0,0.0,0.0,0.0,0.0,0.0,0.0,0.0,0.0,0.0,0.0,-0.0077888634987175465,-0.029264096170663834,0.013623417355120182,0.0,0.0,0.0,0.0,0.0,0.0,0.0,0.0,0.0,0.2207692414522171,0.03410256281495094,9.877179145812988,0.0,0.0,0.0,0.0,0.0,0.0,0.0,0.0,0.0
1646243927.8613186,6221,1646243927,860980397,,0.0,0.0,0.0,0.0,0.0,0.0,0.0,0.0,0.0,0.0,0.0,0.0,0.0,-0.024833092465996742,-0.0495041161775589,0.018949739634990692,0.0,0.0,0.0,0.0,0.0,0.0,0.0,0.0,0.0,0.2746153771877289,-0.2656410336494446,9.50743579864502,0.0,0.0,0.0,0.0,0.0,0.0,0.0,0.0,0.0
1646243927.863532,6222,1646243927,863211252,,0.0,0.0,0.0,0.0,0.0,0.0,0.0,0.0,0.0,0.0,0.0,0.0,0.0,-0.0077888634987175465,-0.017546184360980988,0.017884474247694016,0.0,0.0,0.0,0.0,0.0,0.0,0.0,0.0,0.0,0.2889743745326996,0.2889743745326996,9.773077011108398,0.0,0.0,0.0,0.0,0.0,0.0,0.0,0.0,0.0
1646243927.8657813,6223,1646243927,865418043,,0.0,0.0,0.0,0.0,0.0,0.0,0.0,0.0,0.0,0.0,0.0,0.0,0.0,-0.0013972773449495435,-0.035655677318573,0.03386344015598297,0.0,0.0,0.0,0.0,0.0,0.0,0.0,0.0,0.0,0.22794872522354126,-0.19564102590084076,9.274102210998535,0.0,0.0,0.0,0.0,0.0,0.0,0.0,0.0,0.0
1646243927.8681152,6224,1646243927,867653178,,0.0,0.0,0.0,0.0,0.0,0.0,0.0,0.0,0.0,0.0,0.0,0.0,0.0,0.001798515673726797,-0.02393777295947075,-0.0076818703673779964,0.0,0.0,0.0,0.0,0.0,0.0,0.0,0.0,0.0,0.16871795058250427,0.17769230902194977,9.952564239501953,0.0,0.0,0.0,0.0,0.0,0.0,0.0,0.0,0.0
1646243927.87012,6225,1646243927,869825033,,0.0,0.0,0.0,0.0,0.0,0.0,0.0,0.0,0.0,0.0,0.0,0.0,0.0,-0.016310978680849075,-0.04204726591706276,-0.0023555487859994173,0.0,0.0,0.0,0.0,0.0,0.0,0.0,0.0,0.0,0.22794872522354126,-0.3571794927120209,9.3494873046875,0.0,0.0,0.0,0.0,0.0,0.0,0.0,0.0,0.0
1646243927.872381,6226,1646243927,872163264,,0.0,0.0,0.0,0.0,0.0,0.0,0.0,0.0,0.0,0.0,0.0,0.0,0.0,0.008190101943910122,-0.03245988488197327,0.017884474247694016,0.0,0.0,0.0,0.0,0.0,0.0,0.0,0.0,0.0,0.40205129981040955,-0.31589746475219727,9.609743118286133,0.0,0.0,0.0,0.0,0.0,0.0,0.0,0.0,0.0
1646243927.8747773,6227,1646243927,874454808,,0.0,0.0,0.0,0.0,0.0,0.0,0.0,0.0,0.0,0.0,0.0,0.0,0.0,-0.0077888634987175465,-0.012219863012433052,-0.017269250005483627,0.0,0.0,0.0,0.0,0.0,0.0,0.0,0.0,0.0,0.3392307758331299,-0.012564103119075298,9.755127906799316,0.0,0.0,0.0,0.0,0.0,0.0,0.0,0.0,0.0
1646243927.8770185,6228,1646243927,876692704,,0.0,0.0,0.0,0.0,0.0,0.0,0.0,0.0,0.0,0.0,0.0,0.0,0.0,-0.0003320134710520506,0.0037591024301946163,0.01255815289914608,0.0,0.0,0.0,0.0,0.0,0.0,0.0,0.0,0.0,0.4361538589000702,-0.26384615898132324,9.633076667785645,0.0,0.0,0.0,0.0,0.0,0.0,0.0,0.0,0.0
1646243927.8792925,6229,1646243927,878935185,,0.0,0.0,0.0,0.0,0.0,0.0,0.0,0.0,0.0,0.0,0.0,0.0,0.0,-0.03335520997643471,-0.014350391924381256,0.0019055086886510253,0.0,0.0,0.0,0.0,0.0,0.0,0.0,0.0,0.0,0.41102564334869385,0.1561538577079773,9.613333702087402,0.0,0.0,0.0,0.0,0.0,0.0,0.0,0.0,0.0
1646243927.8823142,6230,1646243927,881123775,,0.0,0.0,0.0,0.0,0.0,0.0,0.0,0.0,0.0,0.0,0.0,0.0,0.0,0.02097327448427677,-0.01115459855645895,0.00723183061927557,0.0,0.0,0.0,0.0,0.0,0.0,0.0,0.0,0.0,0.42538464069366455,-0.43435898423194885,9.494871139526367,0.0,0.0,0.0,0.0,0.0,0.0,0.0,0.0,0.0
1646243927.8835473,6231,1646243927,883300464,,0.0,0.0,0.0,0.0,0.0,0.0,0.0,0.0,0.0,0.0,0.0,0.0,0.0,-0.013115186244249344,-0.015415656380355358,-0.013008194044232368,0.0,0.0,0.0,0.0,0.0,0.0,0.0,0.0,0.0,0.3912820518016815,0.11307692527770996,9.852051734924316,0.0,0.0,0.0,0.0,0.0,0.0,0.0,0.0,0.0
1646243927.8858025,6232,1646243927,885472281,,0.0,0.0,0.0,0.0,0.0,0.0,0.0,0.0,0.0,0.0,0.0,0.0,0.0,-0.0077888634987175465,-0.0015672193840146065,0.005101301707327366,0.0,0.0,0.0,0.0,0.0,0.0,0.0,0.0,0.0,0.49358975887298584,-0.19384616613388062,9.511025428771973,0.0,0.0,0.0,0.0,0.0,0.0,0.0,0.0,0.0
1646243927.8881507,6233,1646243927,887744005,,0.0,0.0,0.0,0.0,0.0,0.0,0.0,0.0,0.0,0.0,0.0,0.0,0.0,-0.0067235990427434444,0.0026938372757285833,-0.02685662917792797,0.0,0.0,0.0,0.0,0.0,0.0,0.0,0.0,0.0,0.44333335757255554,0.01974359154701233,9.69410228729248,0.0,0.0,0.0,0.0,0.0,0.0,0.0,0.0,0.0
1646243927.8904426,6234,1646243927,890002196,,0.0,0.0,0.0,0.0,0.0,0.0,0.0,0.0,0.0,0.0,0.0,0.0,0.0,0.006059573031961918,0.011215953156352043,-0.02685662917792797,0.0,0.0,0.0,0.0,0.0,0.0,0.0,0.0,0.0,0.24230769276618958,0.016153845936059952,9.880769729614258,0.0,0.0,0.0,0.0,0.0,0.0,0.0,0.0,0.0
1646243927.8925993,6235,1646243927,892176270,,0.0,0.0,0.0,0.0,0.0,0.0,0.0,0.0,0.0,0.0,0.0,0.0,0.0,-0.02163730002939701,0.010150688700377941,0.006166566163301468,0.0,0.0,0.0,0.0,0.0,0.0,0.0,0.0,0.0,0.31589746475219727,-0.33384618163108826,9.49128246307373,0.0,0.0,0.0,0.0,0.0,0.0,0.0,0.0,0.0
1646243927.8947158,6236,1646243927,894371776,,0.0,0.0,0.0,0.0,0.0,0.0,0.0,0.0,0.0,0.0,0.0,0.0,0.0,0.012451158836483955,0.00588963134214282,-0.01939977891743183,0.0,0.0,0.0,0.0,0.0,0.0,0.0,0.0,0.0,0.48461538553237915,0.0412820540368557,9.792820930480957,0.0,0.0,0.0,0.0,0.0,0.0,0.0,0.0,0.0
1646243927.8968673,6237,1646243927,896554025,,0.0,0.0,0.0,0.0,0.0,0.0,0.0,0.0,0.0,0.0,0.0,0.0,0.0,0.001798515673726797,0.029325447976589203,-0.00022502047067973763,0.0,0.0,0.0,0.0,0.0,0.0,0.0,0.0,0.0,0.3176923394203186,-0.31051284074783325,9.534358978271484,0.0,0.0,0.0,0.0,0.0,0.0,0.0,0.0,0.0
1646243927.8991964,6238,1646243927,898755059,,0.0,0.0,0.0,0.0,0.0,0.0,0.0,0.0,0.0,0.0,0.0,0.0,0.0,-0.03335520997643471,0.02293386124074459,-0.004486078396439552,0.0,0.0,0.0,0.0,0.0,0.0,0.0,0.0,0.0,0.26384615898132324,0.007179487496614456,9.963333129882812,0.0,0.0,0.0,0.0,0.0,0.0,0.0,0.0,0.0
1646243927.9014251,6239,1646243927,901040129,,0.0,0.0,0.0,0.0,0.0,0.0,0.0,0.0,0.0,0.0,0.0,0.0,0.0,-0.0024625419173389673,0.009085424244403839,-0.03750927746295929,0.0,0.0,0.0,0.0,0.0,0.0,0.0,0.0,0.0,0.4415384829044342,-0.12025640904903412,9.478717803955078,0.0,0.0,0.0,0.0,0.0,0.0,0.0,0.0,0.0
1646243927.9038167,6240,1646243927,903316757,,0.0,0.0,0.0,0.0,0.0,0.0,0.0,0.0,0.0,0.0,0.0,0.0,0.0,-0.014180450700223446,0.02293386124074459,-0.01087766420096159,0.0,0.0,0.0,0.0,0.0,0.0,0.0,0.0,0.0,0.4738461673259735,-0.05743589997291565,9.823333740234375,0.0,0.0,0.0,0.0,0.0,0.0,0.0,0.0,0.0
1646243927.905895,6241,1646243927,905560075,,0.0,0.0,0.0,0.0,0.0,0.0,0.0,0.0,0.0,0.0,0.0,0.0,0.0,0.00925536546856165,0.0016285729361698031,-0.035378746688365936,0.0,0.0,0.0,0.0,0.0,0.0,0.0,0.0,0.0,0.46666666865348816,-0.21000000834465027,9.629487037658691,0.0,0.0,0.0,0.0,0.0,0.0,0.0,0.0,0.0
1646243927.9081197,6242,1646243927,907784959,,0.0,0.0,0.0,0.0,0.0,0.0,0.0,0.0,0.0,0.0,0.0,0.0,0.0,0.0028637798968702555,0.012281217612326145,0.009362359531223774,0.0,0.0,0.0,0.0,0.0,0.0,0.0,0.0,0.0,0.5241025686264038,-0.3410256505012512,9.934615135192871,0.0,0.0,0.0,0.0,0.0,0.0,0.0,0.0,0.0
1646243927.9102664,6243,1646243927,909998833,,0.0,0.0,0.0,0.0,0.0,0.0,0.0,0.0,0.0,0.0,0.0,0.0,0.0,-0.0035278063733130693,0.027194919064641,-0.03644401207566261,0.0,0.0,0.0,0.0,0.0,0.0,0.0,0.0,0.0,0.23153845965862274,0.03410256281495094,9.95974349975586,0.0,0.0,0.0,0.0,0.0,0.0,0.0,0.0,0.0
1646243927.9124875,6244,1646243927,912200285,,0.0,0.0,0.0,0.0,0.0,0.0,0.0,0.0,0.0,0.0,0.0,0.0,0.0,0.018842745572328568,0.04210862144827843,0.004036037251353264,0.0,0.0,0.0,0.0,0.0,0.0,0.0,0.0,0.0,0.4558974504470825,-0.2117948830127716,9.719230651855469,0.0,0.0,0.0,0.0,0.0,0.0,0.0,0.0,0.0
1646243927.915195,6245,1646243927,914406622,,0.0,0.0,0.0,0.0,0.0,0.0,0.0,0.0,0.0,0.0,0.0,0.0,0.0,0.00925536546856165,0.017607539892196655,-0.01407345850020647,0.0,0.0,0.0,0.0,0.0,0.0,0.0,0.0,0.0,0.31589746475219727,0.11666666716337204,9.791025161743164,0.0,0.0,0.0,0.0,0.0,0.0,0.0,0.0,0.0
1646243927.9169588,6246,1646243927,916592782,,0.0,0.0,0.0,0.0,0.0,0.0,0.0,0.0,0.0,0.0,0.0,0.0,0.0,0.03908276557922363,0.03358650580048561,-0.0012902843300253153,0.0,0.0,0.0,0.0,0.0,0.0,0.0,0.0,0.0,0.5079486966133118,-0.2800000011920929,9.837692260742188,0.0,0.0,0.0,0.0,0.0,0.0,0.0,0.0,0.0
1646243927.9192803,6247,1646243927,918932688,,0.0,0.0,0.0,0.0,0.0,0.0,0.0,0.0,0.0,0.0,0.0,0.0,0.0,0.012451158836483955,0.02293386124074459,0.03386344015598297,0.0,0.0,0.0,0.0,0.0,0.0,0.0,0.0,0.0,0.38769233226776123,-0.28179487586021423,9.719230651855469,0.0,0.0,0.0,0.0,0.0,0.0,0.0,0.0,0.0
1646243927.9215174,6248,1646243927,921108081,,0.0,0.0,0.0,0.0,0.0,0.0,0.0,0.0,0.0,0.0,0.0,0.0,0.0,0.008190101943910122,0.028260184451937675,-0.035378746688365936,0.0,0.0,0.0,0.0,0.0,0.0,0.0,0.0,0.0,0.2997435927391052,0.07179487496614456,10.022564888000488,0.0,0.0,0.0,0.0,0.0,0.0,0.0,0.0,0.0
1646243927.924183,6249,1646243927,923334294,,0.0,0.0,0.0,0.0,0.0,0.0,0.0,0.0,0.0,0.0,0.0,0.0,0.0,0.00712483748793602,0.01973806880414486,-0.005551342852413654,0.0,0.0,0.0,0.0,0.0,0.0,0.0,0.0,0.0,0.2925640940666199,-0.22256410121917725,9.94538402557373,0.0,0.0,0.0,0.0,0.0,0.0,0.0,0.0,0.0
1646243927.9258301,6250,1646243927,925564373,,0.0,0.0,0.0,0.0,0.0,0.0,0.0,0.0,0.0,0.0,0.0,0.0,0.0,0.0028637798968702555,0.03358650580048561,-0.028987158089876175,0.0,0.0,0.0,0.0,0.0,0.0,0.0,0.0,0.0,0.4235897660255432,0.16871795058250427,9.965128898620605,0.0,0.0,0.0,0.0,0.0,0.0,0.0,0.0,0.0
1646243927.9282506,6251,1646243927,927793078,,0.0,0.0,0.0,0.0,0.0,0.0,0.0,0.0,0.0,0.0,0.0,0.0,0.0,-0.015245715156197548,0.009085424244403839,0.0008402442326769233,0.0,0.0,0.0,0.0,0.0,0.0,0.0,0.0,0.0,0.08435897529125214,-0.20820513367652893,9.997435569763184,0.0,0.0,0.0,0.0,0.0,0.0,0.0,0.0,0.0
1646243927.9304104,6252,1646243927,930038939,,0.0,0.0,0.0,0.0,0.0,0.0,0.0,0.0,0.0,0.0,0.0,0.0,0.0,-0.005658335518091917,0.02612965553998947,-0.008747135289013386,0.0,0.0,0.0,0.0,0.0,0.0,0.0,0.0,0.0,0.31051284074783325,0.2764102518558502,9.907692909240723,0.0,0.0,0.0,0.0,0.0,0.0,0.0,0.0,0.0
1646243927.9325304,6253,1646243927,932247094,,0.0,0.0,0.0,0.0,0.0,0.0,0.0,0.0,0.0,0.0,0.0,0.0,0.0,0.0007332512177526951,0.04743494465947151,-0.0023555487859994173,0.0,0.0,0.0,0.0,0.0,0.0,0.0,0.0,0.0,0.3571794927120209,-0.14897435903549194,9.8610258102417,0.0,0.0,0.0,0.0,0.0,0.0,0.0,0.0,0.0
1646243927.9347284,6254,1646243927,934499126,,0.0,0.0,0.0,0.0,0.0,0.0,0.0,0.0,0.0,0.0,0.0,0.0,0.0,0.00712483748793602,0.010150688700377941,-0.011942928656935692,0.0,0.0,0.0,0.0,0.0,0.0,0.0,0.0,0.0,0.21717949211597443,0.2979487180709839,9.91128158569336,0.0,0.0,0.0,0.0,0.0,0.0,0.0,0.0,0.0
1646243927.9370773,6255,1646243927,936784996,,0.0,0.0,0.0,0.0,0.0,0.0,0.0,0.0,0.0,0.0,0.0,0.0,0.0,-0.028028886765241623,0.031455978751182556,-0.005551342852413654,0.0,0.0,0.0,0.0,0.0,0.0,0.0,0.0,0.0,0.3176923394203186,0.010769231244921684,9.780256271362305,0.0,0.0,0.0,0.0,0.0,0.0,0.0,0.0,0.0
1646243927.939345,6256,1646243927,938982481,,0.0,0.0,0.0,0.0,0.0,0.0,0.0,0.0,0.0,0.0,0.0,0.0,0.0,-0.016310978680849075,0.04423915222287178,-0.0012902843300253153,0.0,0.0,0.0,0.0,0.0,0.0,0.0,0.0,0.0,0.1382051259279251,-0.11128205060958862,9.837692260742188,0.0,0.0,0.0,0.0,0.0,0.0,0.0,0.0,0.0
1646243927.9415908,6257,1646243927,941244290,,0.0,0.0,0.0,0.0,0.0,0.0,0.0,0.0,0.0,0.0,0.0,0.0,0.0,0.001798515673726797,0.04104335606098175,0.008297095075249672,0.0,0.0,0.0,0.0,0.0,0.0,0.0,0.0,0.0,0.06461538374423981,0.19923077523708344,9.920256614685059,0.0,0.0,0.0,0.0,0.0,0.0,0.0,0.0,0.0
1646243927.943846,6258,1646243927,943433141,,0.0,0.0,0.0,0.0,0.0,0.0,0.0,0.0,0.0,0.0,0.0,0.0,0.0,-0.02163730002939701,0.035717036575078964,-0.01087766420096159,0.0,0.0,0.0,0.0,0.0,0.0,0.0,0.0,0.0,0.19205129146575928,-0.20102564990520477,9.826923370361328,0.0,0.0,0.0,0.0,0.0,0.0,0.0,0.0,0.0
1646243927.945982,6259,1646243927,945634516,,0.0,0.0,0.0,0.0,0.0,0.0,0.0,0.0,0.0,0.0,0.0,0.0,0.0,-0.005658335518091917,0.046369679272174835,-0.008747135289013386,0.0,0.0,0.0,0.0,0.0,0.0,0.0,0.0,0.0,0.06641025841236115,0.26025640964508057,9.936410903930664,0.0,0.0,0.0,0.0,0.0,0.0,0.0,0.0,0.0
1646243927.9482973,6260,1646243927,947847971,,0.0,0.0,0.0,0.0,0.0,0.0,0.0,0.0,0.0,0.0,0.0,0.0,0.0,-0.023767828941345215,0.03358650580048561,-0.006616605911403894,0.0,0.0,0.0,0.0,0.0,0.0,0.0,0.0,0.0,0.1471794843673706,-0.1328205168247223,9.627692222595215,0.0,0.0,0.0,0.0,0.0,0.0,0.0,0.0,0.0
1646243927.9504015,6261,1646243927,950035750,,0.0,0.0,0.0,0.0,0.0,0.0,0.0,0.0,0.0,0.0,0.0,0.0,0.0,-0.020572034642100334,0.04423915222287178,-0.01407345850020647,0.0,0.0,0.0,0.0,0.0,0.0,0.0,0.0,0.0,0.12743589282035828,0.12205128371715546,9.857436180114746,0.0,0.0,0.0,0.0,0.0,0.0,0.0,0.0,0.0
1646243927.9526742,6262,1646243927,952302558,,0.0,0.0,0.0,0.0,0.0,0.0,0.0,0.0,0.0,0.0,0.0,0.0,0.0,-0.02909415028989315,0.03784756362438202,-0.008747135289013386,0.0,0.0,0.0,0.0,0.0,0.0,0.0,0.0,0.0,0.03589743748307228,0.08615384995937347,9.823333740234375,0.0,0.0,0.0,0.0,0.0,0.0,0.0,0.0,0.0
1646243927.9548476,6263,1646243927,954491376,,0.0,0.0,0.0,0.0,0.0,0.0,0.0,0.0,0.0,0.0,0.0,0.0,0.0,-0.03548574075102806,0.043173886835575104,-0.0076818703673779964,0.0,0.0,0.0,0.0,0.0,0.0,0.0,0.0,0.0,0.18128205835819244,0.0735897421836853,9.907692909240723,0.0,0.0,0.0,0.0,0.0,0.0,0.0,0.0,0.0
1646243927.9575694,6264,1646243927,956716993,,0.0,0.0,0.0,0.0,0.0,0.0,0.0,0.0,0.0,0.0,0.0,0.0,0.0,-0.015245715156197548,0.07939288020133972,0.0019055086886510253,0.0,0.0,0.0,0.0,0.0,0.0,0.0,0.0,0.0,0.15076923370361328,0.18307693302631378,9.65999984741211,0.0,0.0,0.0,0.0,0.0,0.0,0.0,0.0,0.0
1646243927.9590967,6265,1646243927,958928239,,0.0,0.0,0.0,0.0,0.0,0.0,0.0,0.0,0.0,0.0,0.0,0.0,0.0,-0.0035278063733130693,0.01441174652427435,-0.0162039864808321,0.0,0.0,0.0,0.0,0.0,0.0,0.0,0.0,0.0,0.05384615436196327,-0.1561538577079773,9.780256271362305,0.0,0.0,0.0,0.0,0.0,0.0,0.0,0.0,0.0
1646243927.9615176,6266,1646243927,961121410,,0.0,0.0,0.0,0.0,0.0,0.0,0.0,0.0,0.0,0.0,0.0,0.0,0.0,-0.017376242205500603,0.03997809439897537,0.008297095075249672,0.0,0.0,0.0,0.0,0.0,0.0,0.0,0.0,0.0,0.05205128341913223,0.3266666829586029,9.983077049255371,0.0,0.0,0.0,0.0,0.0,0.0,0.0,0.0,0.0
1646243927.96366,6267,1646243927,963315780,,0.0,0.0,0.0,0.0,0.0,0.0,0.0,0.0,0.0,0.0,0.0,0.0,0.0,0.00712483748793602,0.04423915222287178,-0.0012902843300253153,0.0,0.0,0.0,0.0,0.0,0.0,0.0,0.0,0.0,0.03948718309402466,-0.07717949151992798,9.60076904296875,0.0,0.0,0.0,0.0,0.0,0.0,0.0,0.0,0.0
1646243927.9671712,6268,1646243927,965566698,,0.0,0.0,0.0,0.0,0.0,0.0,0.0,0.0,0.0,0.0,0.0,0.0,0.0,0.0028637798968702555,0.04743494465947151,-0.004486078396439552,0.0,0.0,0.0,0.0,0.0,0.0,0.0,0.0,0.0,-0.01794871874153614,0.4092307686805725,9.884359359741211,0.0,0.0,0.0,0.0,0.0,0.0,0.0,0.0,0.0
1646243927.9680278,6269,1646243927,967757725,,0.0,0.0,0.0,0.0,0.0,0.0,0.0,0.0,0.0,0.0,0.0,0.0,0.0,0.006059573031961918,0.03678229823708534,-0.0023555487859994173,0.0,0.0,0.0,0.0,0.0,0.0,0.0,0.0,0.0,-0.07538461685180664,-0.07000000029802322,9.59000015258789,0.0,0.0,0.0,0.0,0.0,0.0,0.0,0.0,0.0
1646243927.9703186,6270,1646243927,969934351,,0.0,0.0,0.0,0.0,0.0,0.0,0.0,0.0,0.0,0.0,0.0,0.0,0.0,-0.0035278063733130693,0.015477010980248451,0.002970772795379162,0.0,0.0,0.0,0.0,0.0,0.0,0.0,0.0,0.0,-0.10051282495260239,0.1884615421295166,9.95435905456543,0.0,0.0,0.0,0.0,0.0,0.0,0.0,0.0,0.0
1646243927.972503,6271,1646243927,972122294,,0.0,0.0,0.0,0.0,0.0,0.0,0.0,0.0,0.0,0.0,0.0,0.0,0.0,0.013516423292458057,0.031455978751182556,-0.0162039864808321,0.0,0.0,0.0,0.0,0.0,0.0,0.0,0.0,0.0,-0.030512820929288864,0.24948717653751373,9.916666030883789,0.0,0.0,0.0,0.0,0.0,0.0,0.0,0.0,0.0
1646243927.9746487,6272,1646243927,974330242,,0.0,0.0,0.0,0.0,0.0,0.0,0.0,0.0,0.0,0.0,0.0,0.0,0.0,0.013516423292458057,0.025064390152692795,-0.0076818703673779964,0.0,0.0,0.0,0.0,0.0,0.0,0.0,0.0,0.0,-0.12025640904903412,-0.044871795922517776,9.668973922729492,0.0,0.0,0.0,0.0,0.0,0.0,0.0,0.0,0.0
1646243927.9772425,6273,1646243927,976607069,,0.0,0.0,0.0,0.0,0.0,0.0,0.0,0.0,0.0,0.0,0.0,0.0,0.0,0.013516423292458057,0.028260184451937675,-0.018334513530135155,0.0,0.0,0.0,0.0,0.0,0.0,0.0,0.0,0.0,-0.13102564215660095,0.40743592381477356,9.968717575073242,0.0,0.0,0.0,0.0,0.0,0.0,0.0,0.0,0.0
1646243927.979136,6274,1646243927,978851870,,0.0,0.0,0.0,0.0,0.0,0.0,0.0,0.0,0.0,0.0,0.0,0.0,0.0,0.030560653656721115,-0.0047630127519369125,-0.02366083674132824,0.0,0.0,0.0,0.0,0.0,0.0,0.0,0.0,0.0,-0.3123077154159546,0.046666666865348816,9.652820587158203,0.0,0.0,0.0,0.0,0.0,0.0,0.0,0.0,0.0
1646243927.9814477,6275,1646243927,981072990,,0.0,0.0,0.0,0.0,0.0,0.0,0.0,0.0,0.0,0.0,0.0,0.0,0.0,0.0028637798968702555,0.0016285729361698031,-0.0023555487859994173,0.0,0.0,0.0,0.0,0.0,0.0,0.0,0.0,0.0,-0.18128205835819244,0.5635897517204285,9.929230690002441,0.0,0.0,0.0,0.0,0.0,0.0,0.0,0.0,0.0
1646243927.9837148,6276,1646243927,983320321,,0.0,0.0,0.0,0.0,0.0,0.0,0.0,0.0,0.0,0.0,0.0,0.0,0.0,0.026299597695469856,0.012281217612326145,-0.01939977891743183,0.0,0.0,0.0,0.0,0.0,0.0,0.0,0.0,0.0,-0.29076921939849854,0.06461538374423981,9.59538459777832,0.0,0.0,0.0,0.0,0.0,0.0,0.0,0.0,0.0
1646243927.9857945,6277,1646243927,985513199,,0.0,0.0,0.0,0.0,0.0,0.0,0.0,0.0,0.0,0.0,0.0,0.0,0.0,-0.0013972773449495435,0.009085424244403839,0.005101301707327366,0.0,0.0,0.0,0.0,0.0,0.0,0.0,0.0,0.0,-0.2800000011920929,0.4146153926849365,9.785640716552734,0.0,0.0,0.0,0.0,0.0,0.0,0.0,0.0,0.0
1646243927.9880085,6278,1646243927,987696462,,0.0,0.0,0.0,0.0,0.0,0.0,0.0,0.0,0.0,0.0,0.0,0.0,0.0,-0.0013972773449495435,-0.0036977482959628105,0.005101301707327366,0.0,0.0,0.0,0.0,0.0,0.0,0.0,0.0,0.0,-0.1974359005689621,-0.07000000029802322,9.719230651855469,0.0,0.0,0.0,0.0,0.0,0.0,0.0,0.0,0.0
1646243927.990343,6279,1646243927,989945807,,0.0,0.0,0.0,0.0,0.0,0.0,0.0,0.0,0.0,0.0,0.0,0.0,0.0,-0.009919392876327038,0.009085424244403839,0.004036037251353264,0.0,0.0,0.0,0.0,0.0,0.0,0.0,0.0,0.0,-0.23333333432674408,0.1741025745868683,9.85564136505127,0.0,0.0,0.0,0.0,0.0,0.0,0.0,0.0,0.0
1646243927.9924753,6280,1646243927,992142383,,0.0,0.0,0.0,0.0,0.0,0.0,0.0,0.0,0.0,0.0,0.0,0.0,0.0,0.012451158836483955,-0.0047630127519369125,-0.006616605911403894,0.0,0.0,0.0,0.0,0.0,0.0,0.0,0.0,0.0,-0.2530769407749176,0.2387179583311081,10.011795043945312,0.0,0.0,0.0,0.0,0.0,0.0,0.0,0.0,0.0
1646243927.994775,6281,1646243927,994450522,,0.0,0.0,0.0,0.0,0.0,0.0,0.0,0.0,0.0,0.0,0.0,0.0,0.0,-0.031224681064486504,-0.0047630127519369125,0.0008402442326769233,0.0,0.0,0.0,0.0,0.0,0.0,0.0,0.0,0.0,-0.2997435927391052,-0.03410256281495094,9.923846244812012,0.0,0.0,0.0,0.0,0.0,0.0,0.0,0.0,0.0
1646243927.9970775,6282,1646243927,996675825,,0.0,0.0,0.0,0.0,0.0,0.0,0.0,0.0,0.0,0.0,0.0,0.0,0.0,0.003929044120013714,0.009085424244403839,0.0008402442326769233,0.0,0.0,0.0,0.0,0.0,0.0,0.0,0.0,0.0,-0.3123077154159546,0.4828205108642578,9.823333740234375,0.0,0.0,0.0,0.0,0.0,0.0,0.0,0.0,0.0
1646243927.9993072,6283,1646243927,998896659,,0.0,0.0,0.0,0.0,0.0,0.0,0.0,0.0,0.0,0.0,0.0,0.0,0.0,-0.013115186244249344,-0.013285127468407154,0.009362359531223774,0.0,0.0,0.0,0.0,0.0,0.0,0.0,0.0,0.0,-0.31589746475219727,0.08974359184503555,9.821538925170898,0.0,0.0,0.0,0.0,0.0,0.0,0.0,0.0,0.0
1646243928.0013976,6284,1646243928,1081114,,0.0,0.0,0.0,0.0,0.0,0.0,0.0,0.0,0.0,0.0,0.0,0.0,0.0,0.0028637798968702555,-0.020741978660225868,-0.01087766420096159,0.0,0.0,0.0,0.0,0.0,0.0,0.0,0.0,0.0,-0.28358975052833557,0.16153846681118011,9.690512657165527,0.0,0.0,0.0,0.0,0.0,0.0,0.0,0.0,0.0
1646243928.0035841,6285,1646243928,3318285,,0.0,0.0,0.0,0.0,0.0,0.0,0.0,0.0,0.0,0.0,0.0,0.0,0.0,-0.0077888634987175465,0.015477010980248451,-0.009812399744987488,0.0,0.0,0.0,0.0,0.0,0.0,0.0,0.0,0.0,-0.14179487526416779,0.2566666603088379,9.764102935791016,0.0,0.0,0.0,0.0,0.0,0.0,0.0,0.0,0.0
1646243928.006279,6286,1646243928,5557203,,0.0,0.0,0.0,0.0,0.0,0.0,0.0,0.0,0.0,0.0,0.0,0.0,0.0,-0.0067235990427434444,-0.0026324838399887085,0.002970772795379162,0.0,0.0,0.0,0.0,0.0,0.0,0.0,0.0,0.0,-0.28717949986457825,0.11128205060958862,9.843076705932617,0.0,0.0,0.0,0.0,0.0,0.0,0.0,0.0,0.0
1646243928.0097167,6287,1646243928,7718542,,0.0,0.0,0.0,0.0,0.0,0.0,0.0,0.0,0.0,0.0,0.0,0.0,0.0,-0.014180450700223446,-0.0036977482959628105,0.005101301707327366,0.0,0.0,0.0,0.0,0.0,0.0,0.0,0.0,0.0,-0.21000000834465027,0.3482051491737366,9.744359016418457,0.0,0.0,0.0,0.0,0.0,0.0,0.0,0.0,0.0
1646243928.0102196,6288,1646243928,9935947,,0.0,0.0,0.0,0.0,0.0,0.0,0.0,0.0,0.0,0.0,0.0,0.0,0.0,0.004994308575987816,-0.012219863012433052,0.006166566163301468,0.0,0.0,0.0,0.0,0.0,0.0,0.0,0.0,0.0,-0.15794873237609863,-0.13102564215660095,9.704872131347656,0.0,0.0,0.0,0.0,0.0,0.0,0.0,0.0,0.0
1646243928.0124226,6289,1646243928,12112981,,0.0,0.0,0.0,0.0,0.0,0.0,0.0,0.0,0.0,0.0,0.0,0.0,0.0,0.019908009096980095,-0.01115459855645895,0.022145532071590424,0.0,0.0,0.0,0.0,0.0,0.0,0.0,0.0,0.0,-0.4864102602005005,0.45769232511520386,10.23794937133789,0.0,0.0,0.0,0.0,0.0,0.0,0.0,0.0,0.0
1646243928.0146387,6290,1646243928,14307438,,0.0,0.0,0.0,0.0,0.0,0.0,0.0,0.0,0.0,0.0,0.0,0.0,0.0,0.00925536546856165,-0.01967671327292919,-0.00022502047067973763,0.0,0.0,0.0,0.0,0.0,0.0,0.0,0.0,0.0,0.026923077180981636,-0.09512820839881897,9.344101905822754,0.0,0.0,0.0,0.0,0.0,0.0,0.0,0.0,0.0
1646243928.0168822,6291,1646243928,16490097,,0.0,0.0,0.0,0.0,0.0,0.0,0.0,0.0,0.0,0.0,0.0,0.0,0.0,0.018842745572328568,-0.029264096170663834,-0.009812399744987488,0.0,0.0,0.0,0.0,0.0,0.0,0.0,0.0,0.0,-0.11128205060958862,0.2476923167705536,9.604358673095703,0.0,0.0,0.0,0.0,0.0,0.0,0.0,0.0,0.0
1646243928.0191135,6292,1646243928,18723601,,0.0,0.0,0.0,0.0,0.0,0.0,0.0,0.0,0.0,0.0,0.0,0.0,0.0,0.012451158836483955,-0.028198830783367157,0.01575394533574581,0.0,0.0,0.0,0.0,0.0,0.0,0.0,0.0,0.0,-0.012564103119075298,0.1741025745868683,9.764102935791016,0.0,0.0,0.0,0.0,0.0,0.0,0.0,0.0,0.0
1646243928.0213633,6293,1646243928,21076551,,0.0,0.0,0.0,0.0,0.0,0.0,0.0,0.0,0.0,0.0,0.0,0.0,0.0,0.02843012474477291,-0.03885146975517273,0.021080268546938896,0.0,0.0,0.0,0.0,0.0,0.0,0.0,0.0,0.0,-0.20820513367652893,0.07717949151992798,9.656410217285156,0.0,0.0,0.0,0.0,0.0,0.0,0.0,0.0,0.0
1646243928.0238242,6294,1646243928,23330953,,0.0,0.0,0.0,0.0,0.0,0.0,0.0,0.0,0.0,0.0,0.0,0.0,0.0,0.03375644609332085,-0.028198830783367157,0.014688681811094284,0.0,0.0,0.0,0.0,0.0,0.0,0.0,0.0,0.0,-0.12743589282035828,0.46666666865348816,9.884359359741211,0.0,0.0,0.0,0.0,0.0,0.0,0.0,0.0,0.0
1646243928.0259511,6295,1646243928,25549492,,0.0,0.0,0.0,0.0,0.0,0.0,0.0,0.0,0.0,0.0,0.0,0.0,0.0,0.02523433417081833,-0.05909150093793869,0.011492888443171978,0.0,0.0,0.0,0.0,0.0,0.0,0.0,0.0,0.0,-0.10769230872392654,-0.06282051652669907,9.593589782714844,0.0,0.0,0.0,0.0,0.0,0.0,0.0,0.0,0.0
1646243928.0281808,6296,1646243928,27784692,,0.0,0.0,0.0,0.0,0.0,0.0,0.0,0.0,0.0,0.0,0.0,0.0,0.0,0.012451158836483955,-0.03885146975517273,0.006166566163301468,0.0,0.0,0.0,0.0,0.0,0.0,0.0,0.0,0.0,-0.2710256576538086,0.29615384340286255,10.108718872070312,0.0,0.0,0.0,0.0,0.0,0.0,0.0,0.0,0.0
1646243928.0303283,6297,1646243928,30014600,,0.0,0.0,0.0,0.0,0.0,0.0,0.0,0.0,0.0,0.0,0.0,0.0,0.0,0.024169068783521652,-0.061222027987241745,-0.00022502047067973763,0.0,0.0,0.0,0.0,0.0,0.0,0.0,0.0,0.0,-0.3033333420753479,0.26025640964508057,9.661794662475586,0.0,0.0,0.0,0.0,0.0,0.0,0.0,0.0,0.0
1646243928.0323684,6298,1646243928,32186511,,0.0,0.0,0.0,0.0,0.0,0.0,0.0,0.0,0.0,0.0,0.0,0.0,0.0,0.014581688679754734,-0.05589570105075836,0.01255815289914608,0.0,0.0,0.0,0.0,0.0,0.0,0.0,0.0,0.0,-0.12564103305339813,-0.06820512562990189,9.952564239501953,0.0,0.0,0.0,0.0,0.0,0.0,0.0,0.0,0.0
1646243928.0348172,6299,1646243928,34451056,,0.0,0.0,0.0,0.0,0.0,0.0,0.0,0.0,0.0,0.0,0.0,0.0,0.0,0.001798515673726797,-0.04524305835366249,-0.0076818703673779964,0.0,0.0,0.0,0.0,0.0,0.0,0.0,0.0,0.0,-0.21000000834465027,0.17589744925498962,9.740769386291504,0.0,0.0,0.0,0.0,0.0,0.0,0.0,0.0,0.0
1646243928.0371203,6300,1646243928,36660731,,0.0,0.0,0.0,0.0,0.0,0.0,0.0,0.0,0.0,0.0,0.0,0.0,0.0,-0.015245715156197548,-0.035655677318573,0.050907667726278305,0.0,0.0,0.0,0.0,0.0,0.0,0.0,0.0,0.0,-0.1794871836900711,-0.025128206238150597,9.615128517150879,0.0,0.0,0.0,0.0,0.0,0.0,0.0,0.0,0.0
1646243928.0393438,6301,1646243928,38881296,,0.0,0.0,0.0,0.0,0.0,0.0,0.0,0.0,0.0,0.0,0.0,0.0,0.0,-0.0067235990427434444,-0.06015676259994507,0.022145532071590424,0.0,0.0,0.0,0.0,0.0,0.0,0.0,0.0,0.0,-0.1148717999458313,0.3069230914115906,9.891538619995117,0.0,0.0,0.0,0.0,0.0,0.0,0.0,0.0,0.0
1646243928.0414658,6302,1646243928,41132499,,0.0,0.0,0.0,0.0,0.0,0.0,0.0,0.0,0.0,0.0,0.0,0.0,0.0,-0.016310978680849075,-0.06441782414913177,-0.0023555487859994173,0.0,0.0,0.0,0.0,0.0,0.0,0.0,0.0,0.0,-0.0412820540368557,0.1328205168247223,9.782051086425781,0.0,0.0,0.0,0.0,0.0,0.0,0.0,0.0,0.0
1646243928.0436676,6303,1646243928,43389115,,0.0,0.0,0.0,0.0,0.0,0.0,0.0,0.0,0.0,0.0,0.0,0.0,0.0,-0.03655100241303444,-0.03352515026926994,0.0232107974588871,0.0,0.0,0.0,0.0,0.0,0.0,0.0,0.0,0.0,0.04307692497968674,-0.05743589997291565,9.85025691986084,0.0,0.0,0.0,0.0,0.0,0.0,0.0,0.0,0.0
1646243928.0460315,6304,1646243928,45581745,,0.0,0.0,0.0,0.0,0.0,0.0,0.0,0.0,0.0,0.0,0.0,0.0,0.0,-0.030159417539834976,-0.04311252757906914,0.00723183061927557,0.0,0.0,0.0,0.0,0.0,0.0,0.0,0.0,0.0,-0.05025641247630119,-0.007179487496614456,9.598974227905273,0.0,0.0,0.0,0.0,0.0,0.0,0.0,0.0,0.0
1646243928.048239,6305,1646243928,47811569,,0.0,0.0,0.0,0.0,0.0,0.0,0.0,0.0,0.0,0.0,0.0,0.0,0.0,-0.005658335518091917,-0.039916735142469406,0.04558135196566582,0.0,0.0,0.0,0.0,0.0,0.0,0.0,0.0,0.0,0.07897436618804932,0.09153846651315689,9.75333309173584,0.0,0.0,0.0,0.0,0.0,0.0,0.0,0.0,0.0
1646243928.0512874,6306,1646243928,50044556,,0.0,0.0,0.0,0.0,0.0,0.0,0.0,0.0,0.0,0.0,0.0,0.0,0.0,-0.03868153318762779,-0.03778620809316635,0.02640658989548683,0.0,0.0,0.0,0.0,0.0,0.0,0.0,0.0,0.0,-0.05923077091574669,0.2746153771877289,9.826923370361328,0.0,0.0,0.0,0.0,0.0,0.0,0.0,0.0,0.0
1646243928.05271,6307,1646243928,52321485,,0.0,0.0,0.0,0.0,0.0,0.0,0.0,0.0,0.0,0.0,0.0,0.0,0.0,-0.012049921788275242,-0.03352515026926994,0.024276060983538628,0.0,0.0,0.0,0.0,0.0,0.0,0.0,0.0,0.0,0.06461538374423981,-0.16153846681118011,9.385384559631348,0.0,0.0,0.0,0.0,0.0,0.0,0.0,0.0,0.0
1646243928.0548115,6308,1646243928,54522630,,0.0,0.0,0.0,0.0,0.0,0.0,0.0,0.0,0.0,0.0,0.0,0.0,0.0,-0.028028886765241623,-0.04311252757906914,-0.01087766420096159,0.0,0.0,0.0,0.0,0.0,0.0,0.0,0.0,0.0,0.08076923340559006,0.15794873237609863,9.984871864318848,0.0,0.0,0.0,0.0,0.0,0.0,0.0,0.0,0.0
1646243928.0570478,6309,1646243928,56722231,,0.0,0.0,0.0,0.0,0.0,0.0,0.0,0.0,0.0,0.0,0.0,0.0,0.0,-0.019506771117448807,-0.04630832374095917,0.00723183061927557,0.0,0.0,0.0,0.0,0.0,0.0,0.0,0.0,0.0,0.09692308306694031,-0.22615385055541992,9.505640983581543,0.0,0.0,0.0,0.0,0.0,0.0,0.0,0.0,0.0
1646243928.0592887,6310,1646243928,58927731,,0.0,0.0,0.0,0.0,0.0,0.0,0.0,0.0,0.0,0.0,0.0,0.0,0.0,-0.01844150573015213,-0.036720942705869675,0.017884474247694016,0.0,0.0,0.0,0.0,0.0,0.0,0.0,0.0,0.0,0.26923078298568726,0.014358974993228912,9.792820930480957,0.0,0.0,0.0,0.0,0.0,0.0,0.0,0.0,0.0
1646243928.0613794,6311,1646243928,61119869,,0.0,0.0,0.0,0.0,0.0,0.0,0.0,0.0,0.0,0.0,0.0,0.0,0.0,0.008190101943910122,-0.039916735142469406,-0.011942928656935692,0.0,0.0,0.0,0.0,0.0,0.0,0.0,0.0,0.0,0.4361538589000702,-0.003589743748307228,9.615128517150879,0.0,0.0,0.0,0.0,0.0,0.0,0.0,0.0,0.0
1646243928.063542,6312,1646243928,63321819,,0.0,0.0,0.0,0.0,0.0,0.0,0.0,0.0,0.0,0.0,0.0,0.0,0.0,-0.009919392876327038,-0.02713356725871563,0.05623399093747139,0.0,0.0,0.0,0.0,0.0,0.0,0.0,0.0,0.0,0.2656410336494446,-0.24948717653751373,9.56128215789795,0.0,0.0,0.0,0.0,0.0,0.0,0.0,0.0,0.0
1646243928.0658467,6313,1646243928,65546982,,0.0,0.0,0.0,0.0,0.0,0.0,0.0,0.0,0.0,0.0,0.0,0.0,0.0,0.00925536546856165,-0.028198830783367157,-0.017269250005483627,0.0,0.0,0.0,0.0,0.0,0.0,0.0,0.0,0.0,0.1328205168247223,0.24230769276618958,9.64025592803955,0.0,0.0,0.0,0.0,0.0,0.0,0.0,0.0,0.0
1646243928.0681236,6314,1646243928,67763269,,0.0,0.0,0.0,0.0,0.0,0.0,0.0,0.0,0.0,0.0,0.0,0.0,0.0,-0.0067235990427434444,-0.035655677318573,0.025341326370835304,0.0,0.0,0.0,0.0,0.0,0.0,0.0,0.0,0.0,0.19384616613388062,-0.1794871836900711,9.417692184448242,0.0,0.0,0.0,0.0,0.0,0.0,0.0,0.0,0.0
1646243928.07038,6315,1646243928,70016705,,0.0,0.0,0.0,0.0,0.0,0.0,0.0,0.0,0.0,0.0,0.0,0.0,0.0,-0.016310978680849075,-0.03778620809316635,0.002970772795379162,0.0,0.0,0.0,0.0,0.0,0.0,0.0,0.0,0.0,0.44333335757255554,0.1705128252506256,9.539743423461914,0.0,0.0,0.0,0.0,0.0,0.0,0.0,0.0,0.0
1646243928.0725534,6316,1646243928,72275225,,0.0,0.0,0.0,0.0,0.0,0.0,0.0,0.0,0.0,0.0,0.0,0.0,0.0,0.015646953135728836,-0.02287250943481922,0.014688681811094284,0.0,0.0,0.0,0.0,0.0,0.0,0.0,0.0,0.0,0.40743592381477356,-0.3589743673801422,9.309999465942383,0.0,0.0,0.0,0.0,0.0,0.0,0.0,0.0,0.0
1646243928.0748916,6317,1646243928,74503975,,0.0,0.0,0.0,0.0,0.0,0.0,0.0,0.0,0.0,0.0,0.0,0.0,0.0,0.0007332512177526951,0.0016285729361698031,0.01255815289914608,0.0,0.0,0.0,0.0,0.0,0.0,0.0,0.0,0.0,0.40205129981040955,0.1561538577079773,9.651025772094727,0.0,0.0,0.0,0.0,0.0,0.0,0.0,0.0,0.0
1646243928.077,6318,1646243928,76700178,,0.0,0.0,0.0,0.0,0.0,0.0,0.0,0.0,0.0,0.0,0.0,0.0,0.0,0.0103206317871809,-0.0015672193840146065,0.029602382332086563,0.0,0.0,0.0,0.0,0.0,0.0,0.0,0.0,0.0,0.34282052516937256,-0.2620512843132019,9.656410217285156,0.0,0.0,0.0,0.0,0.0,0.0,0.0,0.0,0.0
1646243928.0793078,6319,1646243928,78897172,,0.0,0.0,0.0,0.0,0.0,0.0,0.0,0.0,0.0,0.0,0.0,0.0,0.0,-0.012049921788275242,-0.01115459855645895,0.011492888443171978,0.0,0.0,0.0,0.0,0.0,0.0,0.0,0.0,0.0,0.14000000059604645,-0.2710256576538086,9.602563858032227,0.0,0.0,0.0,0.0,0.0,0.0,0.0,0.0,0.0
1646243928.0813956,6320,1646243928,81079481,,0.0,0.0,0.0,0.0,0.0,0.0,0.0,0.0,0.0,0.0,0.0,0.0,0.0,0.001798515673726797,-0.009024071507155895,-0.02046504244208336,0.0,0.0,0.0,0.0,0.0,0.0,0.0,0.0,0.0,0.3033333420753479,0.03948718309402466,9.922051429748535,0.0,0.0,0.0,0.0,0.0,0.0,0.0,0.0,0.0
1646243928.0837438,6321,1646243928,83265811,,0.0,0.0,0.0,0.0,0.0,0.0,0.0,0.0,0.0,0.0,0.0,0.0,0.0,0.004994308575987816,-0.02287250943481922,-0.00022502047067973763,0.0,0.0,0.0,0.0,0.0,0.0,0.0,0.0,0.0,0.18666666746139526,-0.32846155762672424,9.704872131347656,0.0,0.0,0.0,0.0,0.0,0.0,0.0,0.0,0.0
1646243928.085848,6322,1646243928,85490601,,0.0,0.0,0.0,0.0,0.0,0.0,0.0,0.0,0.0,0.0,0.0,0.0,0.0,-0.0013972773449495435,-0.0005019548698328435,-0.0162039864808321,0.0,0.0,0.0,0.0,0.0,0.0,0.0,0.0,0.0,0.4235897660255432,0.044871795922517776,9.674358367919922,0.0,0.0,0.0,0.0,0.0,0.0,0.0,0.0,0.0
1646243928.0880413,6323,1646243928,87719621,,0.0,0.0,0.0,0.0,0.0,0.0,0.0,0.0,0.0,0.0,0.0,0.0,0.0,-0.013115186244249344,0.01654227450489998,-0.0023555487859994173,0.0,0.0,0.0,0.0,0.0,0.0,0.0,0.0,0.0,0.30512821674346924,-0.26923078298568726,9.728204727172852,0.0,0.0,0.0,0.0,0.0,0.0,0.0,0.0,0.0
1646243928.0901268,6324,1646243928,89904431,,0.0,0.0,0.0,0.0,0.0,0.0,0.0,0.0,0.0,0.0,0.0,0.0,0.0,-0.020572034642100334,-0.010089334100484848,0.01575394533574581,0.0,0.0,0.0,0.0,0.0,0.0,0.0,0.0,0.0,0.41102564334869385,0.06282051652669907,9.532564163208008,0.0,0.0,0.0,0.0,0.0,0.0,0.0,0.0,0.0
1646243928.0931528,6325,1646243928,92084522,,0.0,0.0,0.0,0.0,0.0,0.0,0.0,0.0,0.0,0.0,0.0,0.0,0.0,0.004994308575987816,0.027194919064641,-0.0076818703673779964,0.0,0.0,0.0,0.0,0.0,0.0,0.0,0.0,0.0,0.1382051259279251,0.07897436618804932,9.791025161743164,0.0,0.0,0.0,0.0,0.0,0.0,0.0,0.0,0.0
1646243928.0945656,6326,1646243928,94296076,,0.0,0.0,0.0,0.0,0.0,0.0,0.0,0.0,0.0,0.0,0.0,0.0,0.0,-0.01844150573015213,0.01441174652427435,-0.00022502047067973763,0.0,0.0,0.0,0.0,0.0,0.0,0.0,0.0,0.0,0.4505128264427185,-0.17769230902194977,9.658205032348633,0.0,0.0,0.0,0.0,0.0,0.0,0.0,0.0,0.0
1646243928.0968666,6327,1646243928,96455929,,0.0,0.0,0.0,0.0,0.0,0.0,0.0,0.0,0.0,0.0,0.0,0.0,0.0,-0.005658335518091917,0.015477010980248451,-0.009812399744987488,0.0,0.0,0.0,0.0,0.0,0.0,0.0,0.0,0.0,0.5133333206176758,-0.0825641080737114,9.45897388458252,0.0,0.0,0.0,0.0,0.0,0.0,0.0,0.0,0.0
1646243928.0989888,6328,1646243928,98630983,,0.0,0.0,0.0,0.0,0.0,0.0,0.0,0.0,0.0,0.0,0.0,0.0,0.0,-0.004593071062117815,0.0016285729361698031,-0.008747135289013386,0.0,0.0,0.0,0.0,0.0,0.0,0.0,0.0,0.0,0.4630769193172455,-0.19564102590084076,9.51282024383545,0.0,0.0,0.0,0.0,0.0,0.0,0.0,0.0,0.0
1646243928.101178,6329,1646243928,100816426,,0.0,0.0,0.0,0.0,0.0,0.0,0.0,0.0,0.0,0.0,0.0,0.0,0.0,0.013516423292458057,0.009085424244403839,0.002970772795379162,0.0,0.0,0.0,0.0,0.0,0.0,0.0,0.0,0.0,0.38948720693588257,-0.15794873237609863,9.934615135192871,0.0,0.0,0.0,0.0,0.0,0.0,0.0,0.0,0.0
1646243928.103381,6330,1646243928,103010111,,0.0,0.0,0.0,0.0,0.0,0.0,0.0,0.0,0.0,0.0,0.0,0.0,0.0,0.0028637798968702555,0.017607539892196655,0.0019055086886510253,0.0,0.0,0.0,0.0,0.0,0.0,0.0,0.0,0.0,0.39666667580604553,-0.29076921939849854,9.715641021728516,0.0,0.0,0.0,0.0,0.0,0.0,0.0,0.0,0.0
1646243928.105519,6331,1646243928,105204452,,0.0,0.0,0.0,0.0,0.0,0.0,0.0,0.0,0.0,0.0,0.0,0.0,0.0,0.02097327448427677,0.01973806880414486,-0.031117688864469528,0.0,0.0,0.0,0.0,0.0,0.0,0.0,0.0,0.0,0.2746153771877289,0.1561538577079773,10.333076477050781,0.0,0.0,0.0,0.0,0.0,0.0,0.0,0.0,0.0
1646243928.1078348,6332,1646243928,107402576,,0.0,0.0,0.0,0.0,0.0,0.0,0.0,0.0,0.0,0.0,0.0,0.0,0.0,-0.0013972773449495435,0.023999126628041267,-0.0034208132419735193,0.0,0.0,0.0,0.0,0.0,0.0,0.0,0.0,0.0,0.2710256576538086,-0.2566666603088379,9.835898399353027,0.0,0.0,0.0,0.0,0.0,0.0,0.0,0.0,0.0
1646243928.1099677,6333,1646243928,109596234,,0.0,0.0,0.0,0.0,0.0,0.0,0.0,0.0,0.0,0.0,0.0,0.0,0.0,-0.004593071062117815,0.018672803416848183,-0.025791365653276443,0.0,0.0,0.0,0.0,0.0,0.0,0.0,0.0,0.0,0.39846155047416687,0.01794871874153614,9.771282196044922,0.0,0.0,0.0,0.0,0.0,0.0,0.0,0.0,0.0
1646243928.1122453,6334,1646243928,111840998,,0.0,0.0,0.0,0.0,0.0,0.0,0.0,0.0,0.0,0.0,0.0,0.0,0.0,0.0103206317871809,0.027194919064641,-0.01087766420096159,0.0,0.0,0.0,0.0,0.0,0.0,0.0,0.0,0.0,0.3500000238418579,-0.21000000834465027,9.871794700622559,0.0,0.0,0.0,0.0,0.0,0.0,0.0,0.0,0.0
1646243928.1143987,6335,1646243928,114033565,,0.0,0.0,0.0,0.0,0.0,0.0,0.0,0.0,0.0,0.0,0.0,0.0,0.0,0.00712483748793602,0.02293386124074459,-0.005551342852413654,0.0,0.0,0.0,0.0,0.0,0.0,0.0,0.0,0.0,0.7843589782714844,-0.16871795058250427,9.633076667785645,0.0,0.0,0.0,0.0,0.0,0.0,0.0,0.0,0.0
1646243928.1166432,6336,1646243928,116253360,,0.0,0.0,0.0,0.0,0.0,0.0,0.0,0.0,0.0,0.0,0.0,0.0,0.0,0.011385894380509853,0.031455978751182556,-0.025791365653276443,0.0,0.0,0.0,0.0,0.0,0.0,0.0,0.0,0.0,0.08076923340559006,0.22794872522354126,10.43897533416748,0.0,0.0,0.0,0.0,0.0,0.0,0.0,0.0,0.0
1646243928.118866,6337,1646243928,118439222,,0.0,0.0,0.0,0.0,0.0,0.0,0.0,0.0,0.0,0.0,0.0,0.0,0.0,0.012451158836483955,0.01441174652427435,0.010427623987197876,0.0,0.0,0.0,0.0,0.0,0.0,0.0,0.0,0.0,0.34282052516937256,-0.2620512843132019,9.857436180114746,0.0,0.0,0.0,0.0,0.0,0.0,0.0,0.0,0.0
1646243928.120821,6338,1646243928,120651541,,0.0,0.0,0.0,0.0,0.0,0.0,0.0,0.0,0.0,0.0,0.0,0.0,0.0,-0.024833092465996742,0.027194919064641,-0.017269250005483627,0.0,0.0,0.0,0.0,0.0,0.0,0.0,0.0,0.0,0.4415384829044342,-0.05205128341913223,9.738973617553711,0.0,0.0,0.0,0.0,0.0,0.0,0.0,0.0,0.0
1646243928.1235058,6339,1646243928,122862788,,0.0,0.0,0.0,0.0,0.0,0.0,0.0,0.0,0.0,0.0,0.0,0.0,0.0,0.014581688679754734,0.02612965553998947,0.0019055086886510253,0.0,0.0,0.0,0.0,0.0,0.0,0.0,0.0,0.0,0.5276923179626465,-0.38948720693588257,9.44282054901123,0.0,0.0,0.0,0.0,0.0,0.0,0.0,0.0,0.0
1646243928.125503,6340,1646243928,125136644,,0.0,0.0,0.0,0.0,0.0,0.0,0.0,0.0,0.0,0.0,0.0,0.0,0.0,0.0007332512177526951,0.01654227450489998,-0.0076818703673779964,0.0,0.0,0.0,0.0,0.0,0.0,0.0,0.0,0.0,0.6246154308319092,0.046666666865348816,9.372819900512695,0.0,0.0,0.0,0.0,0.0,0.0,0.0,0.0,0.0
1646243928.12787,6341,1646243928,127376822,,0.0,0.0,0.0,0.0,0.0,0.0,0.0,0.0,0.0,0.0,0.0,0.0,0.0,-0.004593071062117815,0.03678229823708534,-0.028987158089876175,0.0,0.0,0.0,0.0,0.0,0.0,0.0,0.0,0.0,0.47025641798973083,-0.19923077523708344,9.713846206665039,0.0,0.0,0.0,0.0,0.0,0.0,0.0,0.0,0.0
1646243928.1298594,6342,1646243928,129590422,,0.0,0.0,0.0,0.0,0.0,0.0,0.0,0.0,0.0,0.0,0.0,0.0,0.0,0.00925536546856165,0.0037591024301946163,-0.005551342852413654,0.0,0.0,0.0,0.0,0.0,0.0,0.0,0.0,0.0,0.11128205060958862,0.31948718428611755,10.099743843078613,0.0,0.0,0.0,0.0,0.0,0.0,0.0,0.0,0.0
1646243928.1320777,6343,1646243928,131823897,,0.0,0.0,0.0,0.0,0.0,0.0,0.0,0.0,0.0,0.0,0.0,0.0,0.0,0.015646953135728836,0.04423915222287178,-0.011942928656935692,0.0,0.0,0.0,0.0,0.0,0.0,0.0,0.0,0.0,0.03769230842590332,-0.01974359154701233,10.135641098022461,0.0,0.0,0.0,0.0,0.0,0.0,0.0,0.0,0.0
1646243928.135517,6344,1646243928,134017811,,0.0,0.0,0.0,0.0,0.0,0.0,0.0,0.0,0.0,0.0,0.0,0.0,0.0,0.016712216660380363,0.043173886835575104,-0.0076818703673779964,0.0,0.0,0.0,0.0,0.0,0.0,0.0,0.0,0.0,-0.14000000059604645,-0.10230769217014313,10.162564277648926,0.0,0.0,0.0,0.0,0.0,0.0,0.0,0.0,0.0
1646243928.1365328,6345,1646243928,136208323,,0.0,0.0,0.0,0.0,0.0,0.0,0.0,0.0,0.0,0.0,0.0,0.0,0.0,-0.004593071062117815,0.03358650580048561,-0.009812399744987488,0.0,0.0,0.0,0.0,0.0,0.0,0.0,0.0,0.0,0.06820512562990189,0.15256410837173462,10.205641746520996,0.0,0.0,0.0,0.0,0.0,0.0,0.0,0.0,0.0
1646243928.138899,6346,1646243928,138409276,,0.0,0.0,0.0,0.0,0.0,0.0,0.0,0.0,0.0,0.0,0.0,0.0,0.0,-0.004593071062117815,0.035717036575078964,0.01681920886039734,0.0,0.0,0.0,0.0,0.0,0.0,0.0,0.0,0.0,0.2925640940666199,-0.22435897588729858,9.487691879272461,0.0,0.0,0.0,0.0,0.0,0.0,0.0,0.0,0.0
1646243928.1408713,6347,1646243928,140623077,,0.0,0.0,0.0,0.0,0.0,0.0,0.0,0.0,0.0,0.0,0.0,0.0,0.0,0.023103805258870125,0.04104335606098175,-0.0162039864808321,0.0,0.0,0.0,0.0,0.0,0.0,0.0,0.0,0.0,-0.1328205168247223,0.3302564322948456,10.55384635925293,0.0,0.0,0.0,0.0,0.0,0.0,0.0,0.0,0.0
1646243928.143082,6348,1646243928,142812763,,0.0,0.0,0.0,0.0,0.0,0.0,0.0,0.0,0.0,0.0,0.0,0.0,0.0,-0.020572034642100334,0.04850020632147789,0.028537116944789886,0.0,0.0,0.0,0.0,0.0,0.0,0.0,0.0,0.0,0.02153846248984337,-0.014358974993228912,9.91128158569336,0.0,0.0,0.0,0.0,0.0,0.0,0.0,0.0,0.0
1646243928.1454456,6349,1646243928,145107488,,0.0,0.0,0.0,0.0,0.0,0.0,0.0,0.0,0.0,0.0,0.0,0.0,0.0,-0.0035278063733130693,0.04423915222287178,0.0019055086886510253,0.0,0.0,0.0,0.0,0.0,0.0,0.0,0.0,0.0,-0.1471794843673706,0.005384615622460842,10.255897521972656,0.0,0.0,0.0,0.0,0.0,0.0,0.0,0.0,0.0
1646243928.1476464,6350,1646243928,147300485,,0.0,0.0,0.0,0.0,0.0,0.0,0.0,0.0,0.0,0.0,0.0,0.0,0.0,0.0007332512177526951,0.043173886835575104,-0.01939977891743183,0.0,0.0,0.0,0.0,0.0,0.0,0.0,0.0,0.0,0.18666666746139526,0.2028205245733261,9.685128211975098,0.0,0.0,0.0,0.0,0.0,0.0,0.0,0.0,0.0
1646243928.150108,6351,1646243928,149483658,,0.0,0.0,0.0,0.0,0.0,0.0,0.0,0.0,0.0,0.0,0.0,0.0,0.0,-0.019506771117448807,0.032521240413188934,0.01575394533574581,0.0,0.0,0.0,0.0,0.0,0.0,0.0,0.0,0.0,0.45769232511520386,-0.1382051259279251,9.543333053588867,0.0,0.0,0.0,0.0,0.0,0.0,0.0,0.0,0.0
1646243928.1520936,6352,1646243928,151729696,,0.0,0.0,0.0,0.0,0.0,0.0,0.0,0.0,0.0,0.0,0.0,0.0,0.0,-0.02589835785329342,0.02612965553998947,0.004036037251353264,0.0,0.0,0.0,0.0,0.0,0.0,0.0,0.0,0.0,0.25487178564071655,0.05025641247630119,9.336922645568848,0.0,0.0,0.0,0.0,0.0,0.0,0.0,0.0,0.0
1646243928.1543117,6353,1646243928,153913507,,0.0,0.0,0.0,0.0,0.0,0.0,0.0,0.0,0.0,0.0,0.0,0.0,0.0,-0.0077888634987175465,0.028260184451937675,0.009362359531223774,0.0,0.0,0.0,0.0,0.0,0.0,0.0,0.0,0.0,0.08974359184503555,0.19025641679763794,10.09794807434082,0.0,0.0,0.0,0.0,0.0,0.0,0.0,0.0,0.0
1646243928.1563702,6354,1646243928,156104256,,0.0,0.0,0.0,0.0,0.0,0.0,0.0,0.0,0.0,0.0,0.0,0.0,0.0,-0.0067235990427434444,0.04104335606098175,0.002970772795379162,0.0,0.0,0.0,0.0,0.0,0.0,0.0,0.0,0.0,-0.06641025841236115,0.3392307758331299,10.022564888000488,0.0,0.0,0.0,0.0,0.0,0.0,0.0,0.0,0.0
1646243928.1586852,6355,1646243928,158293422,,0.0,0.0,0.0,0.0,0.0,0.0,0.0,0.0,0.0,0.0,0.0,0.0,0.0,-0.009919392876327038,0.03997809439897537,0.009362359531223774,0.0,0.0,0.0,0.0,0.0,0.0,0.0,0.0,0.0,-0.34282052516937256,0.0,10.144615173339844,0.0,0.0,0.0,0.0,0.0,0.0,0.0,0.0,0.0
1646243928.1608064,6356,1646243928,160477121,,0.0,0.0,0.0,0.0,0.0,0.0,0.0,0.0,0.0,0.0,0.0,0.0,0.0,-0.009919392876327038,0.03465176746249199,-0.0034208132419735193,0.0,0.0,0.0,0.0,0.0,0.0,0.0,0.0,0.0,-0.15974359214305878,0.3500000238418579,10.193077087402344,0.0,0.0,0.0,0.0,0.0,0.0,0.0,0.0,0.0
1646243928.1630168,6357,1646243928,162661157,,0.0,0.0,0.0,0.0,0.0,0.0,0.0,0.0,0.0,0.0,0.0,0.0,0.0,-0.0035278063733130693,0.04423915222287178,0.0008402442326769233,0.0,0.0,0.0,0.0,0.0,0.0,0.0,0.0,0.0,0.06282051652669907,0.03769230842590332,9.670769691467285,0.0,0.0,0.0,0.0,0.0,0.0,0.0,0.0,0.0
1646243928.165211,6358,1646243928,164861071,,0.0,0.0,0.0,0.0,0.0,0.0,0.0,0.0,0.0,0.0,0.0,0.0,0.0,-0.014180450700223446,0.01654227450489998,-0.018334513530135155,0.0,0.0,0.0,0.0,0.0,0.0,0.0,0.0,0.0,-0.29076921939849854,0.4864102602005005,10.148205757141113,0.0,0.0,0.0,0.0,0.0,0.0,0.0,0.0,0.0
1646243928.1674078,6359,1646243928,167060476,,0.0,0.0,0.0,0.0,0.0,0.0,0.0,0.0,0.0,0.0,0.0,0.0,0.0,-0.012049921788275242,0.03465176746249199,0.014688681811094284,0.0,0.0,0.0,0.0,0.0,0.0,0.0,0.0,0.0,-0.14358974993228912,0.14538460969924927,10.124872207641602,0.0,0.0,0.0,0.0,0.0,0.0,0.0,0.0,0.0
1646243928.1695905,6360,1646243928,169270256,,0.0,0.0,0.0,0.0,0.0,0.0,0.0,0.0,0.0,0.0,0.0,0.0,0.0,0.004994308575987816,0.017607539892196655,-0.022595571354031563,0.0,0.0,0.0,0.0,0.0,0.0,0.0,0.0,0.0,-0.4720512926578522,0.15974359214305878,10.022564888000488,0.0,0.0,0.0,0.0,0.0,0.0,0.0,0.0,0.0
1646243928.1719513,6361,1646243928,171531128,,0.0,0.0,0.0,0.0,0.0,0.0,0.0,0.0,0.0,0.0,0.0,0.0,0.0,0.011385894380509853,0.017607539892196655,-0.01939977891743183,0.0,0.0,0.0,0.0,0.0,0.0,0.0,0.0,0.0,-0.01974359154701233,0.42897436022758484,9.961538314819336,0.0,0.0,0.0,0.0,0.0,0.0,0.0,0.0,0.0
1646243928.174175,6362,1646243928,173817351,,0.0,0.0,0.0,0.0,0.0,0.0,0.0,0.0,0.0,0.0,0.0,0.0,0.0,-0.012049921788275242,0.03358650580048561,0.013623417355120182,0.0,0.0,0.0,0.0,0.0,0.0,0.0,0.0,0.0,0.17589744925498962,-0.16871795058250427,9.186153411865234,0.0,0.0,0.0,0.0,0.0,0.0,0.0,0.0,0.0
1646243928.177021,6363,1646243928,176060723,,0.0,0.0,0.0,0.0,0.0,0.0,0.0,0.0,0.0,0.0,0.0,0.0,0.0,0.0028637798968702555,0.018672803416848183,-0.00022502047067973763,0.0,0.0,0.0,0.0,0.0,0.0,0.0,0.0,0.0,0.18666666746139526,0.2207692414522171,9.406923294067383,0.0,0.0,0.0,0.0,0.0,0.0,0.0,0.0,0.0
1646243928.1784852,6364,1646243928,178230554,,0.0,0.0,0.0,0.0,0.0,0.0,0.0,0.0,0.0,0.0,0.0,0.0,0.0,0.012451158836483955,0.035717036575078964,-0.0023555487859994173,0.0,0.0,0.0,0.0,0.0,0.0,0.0,0.0,0.0,0.13461539149284363,0.012564103119075298,9.19153881072998,0.0,0.0,0.0,0.0,0.0,0.0,0.0,0.0,0.0
1646243928.1808305,6365,1646243928,180498889,,0.0,0.0,0.0,0.0,0.0,0.0,0.0,0.0,0.0,0.0,0.0,0.0,0.0,0.004994308575987816,-0.0026324838399887085,-0.022595571354031563,0.0,0.0,0.0,0.0,0.0,0.0,0.0,0.0,0.0,-0.1058974415063858,0.2853846251964569,9.93820571899414,0.0,0.0,0.0,0.0,0.0,0.0,0.0,0.0,0.0
1646243928.1829863,6366,1646243928,182701039,,0.0,0.0,0.0,0.0,0.0,0.0,0.0,0.0,0.0,0.0,0.0,0.0,0.0,0.024169068783521652,0.01654227450489998,-0.0012902843300253153,0.0,0.0,0.0,0.0,0.0,0.0,0.0,0.0,0.0,-0.4325641095638275,0.1238461583852768,10.142821311950684,0.0,0.0,0.0,0.0,0.0,0.0,0.0,0.0,0.0
1646243928.185247,6367,1646243928,184912764,,0.0,0.0,0.0,0.0,0.0,0.0,0.0,0.0,0.0,0.0,0.0,0.0,0.0,0.004994308575987816,0.013346482068300247,-0.0012902843300253153,0.0,0.0,0.0,0.0,0.0,0.0,0.0,0.0,0.0,-0.6641026139259338,0.25128206610679626,10.340256690979004,0.0,0.0,0.0,0.0,0.0,0.0,0.0,0.0,0.0
1646243928.1875324,6368,1646243928,187166180,,0.0,0.0,0.0,0.0,0.0,0.0,0.0,0.0,0.0,0.0,0.0,0.0,0.0,0.018842745572328568,0.0037591024301946163,-0.01087766420096159,0.0,0.0,0.0,0.0,0.0,0.0,0.0,0.0,0.0,-0.5079486966133118,0.40743592381477356,10.211026191711426,0.0,0.0,0.0,0.0,0.0,0.0,0.0,0.0,0.0
1646243928.1898224,6369,1646243928,189425934,,0.0,0.0,0.0,0.0,0.0,0.0,0.0,0.0,0.0,0.0,0.0,0.0,0.0,0.019908009096980095,0.011215953156352043,-0.0162039864808321,0.0,0.0,0.0,0.0,0.0,0.0,0.0,0.0,0.0,-0.31051284074783325,-0.10410256683826447,9.73717975616455,0.0,0.0,0.0,0.0,0.0,0.0,0.0,0.0,0.0
1646243928.1920104,6370,1646243928,191619420,,0.0,0.0,0.0,0.0,0.0,0.0,0.0,0.0,0.0,0.0,0.0,0.0,0.0,0.0028637798968702555,0.018672803416848183,-0.011942928656935692,0.0,0.0,0.0,0.0,0.0,0.0,0.0,0.0,0.0,-0.6515384912490845,0.5958974361419678,10.333076477050781,0.0,0.0,0.0,0.0,0.0,0.0,0.0,0.0,0.0
1646243928.194178,6371,1646243928,193808743,,0.0,0.0,0.0,0.0,0.0,0.0,0.0,0.0,0.0,0.0,0.0,0.0,0.0,0.012451158836483955,-0.0047630127519369125,0.0232107974588871,0.0,0.0,0.0,0.0,0.0,0.0,0.0,0.0,0.0,-0.5528205037117004,0.14358974993228912,10.196666717529297,0.0,0.0,0.0,0.0,0.0,0.0,0.0,0.0,0.0
1646243928.1963537,6372,1646243928,196047317,,0.0,0.0,0.0,0.0,0.0,0.0,0.0,0.0,0.0,0.0,0.0,0.0,0.0,-0.005658335518091917,0.0016285729361698031,0.01255815289914608,0.0,0.0,0.0,0.0,0.0,0.0,0.0,0.0,0.0,-0.08615384995937347,0.12025640904903412,9.415897369384766,0.0,0.0,0.0,0.0,0.0,0.0,0.0,0.0,0.0
1646243928.1986077,6373,1646243928,198243367,,0.0,0.0,0.0,0.0,0.0,0.0,0.0,0.0,0.0,0.0,0.0,0.0,0.0,-0.019506771117448807,-0.009024071507155895,-0.008747135289013386,0.0,0.0,0.0,0.0,0.0,0.0,0.0,0.0,0.0,-0.31948718428611755,0.31051284074783325,9.952564239501953,0.0,0.0,0.0,0.0,0.0,0.0,0.0,0.0,0.0
1646243928.2008314,6374,1646243928,200491684,,0.0,0.0,0.0,0.0,0.0,0.0,0.0,0.0,0.0,0.0,0.0,0.0,0.0,0.011385894380509853,0.01441174652427435,0.01681920886039734,0.0,0.0,0.0,0.0,0.0,0.0,0.0,0.0,0.0,0.044871795922517776,-0.09153846651315689,9.326153755187988,0.0,0.0,0.0,0.0,0.0,0.0,0.0,0.0,0.0
1646243928.203182,6375,1646243928,202786413,,0.0,0.0,0.0,0.0,0.0,0.0,0.0,0.0,0.0,0.0,0.0,0.0,0.0,-0.005658335518091917,-0.005828278139233589,-0.004486078396439552,0.0,0.0,0.0,0.0,0.0,0.0,0.0,0.0,0.0,0.03410256281495094,0.17769230902194977,9.449999809265137,0.0,0.0,0.0,0.0,0.0,0.0,0.0,0.0,0.0
1646243928.205371,6376,1646243928,205068613,,0.0,0.0,0.0,0.0,0.0,0.0,0.0,0.0,0.0,0.0,0.0,0.0,0.0,-0.009919392876327038,-0.009024071507155895,0.018949739634990692,0.0,0.0,0.0,0.0,0.0,0.0,0.0,0.0,0.0,0.12743589282035828,-0.1974359005689621,9.225641250610352,0.0,0.0,0.0,0.0,0.0,0.0,0.0,0.0,0.0
1646243928.2076378,6377,1646243928,207255002,,0.0,0.0,0.0,0.0,0.0,0.0,0.0,0.0,0.0,0.0,0.0,0.0,0.0,-0.0077888634987175465,-0.015415656380355358,-0.02046504244208336,0.0,0.0,0.0,0.0,0.0,0.0,0.0,0.0,0.0,-0.4594871997833252,0.3805128335952759,10.004615783691406,0.0,0.0,0.0,0.0,0.0,0.0,0.0,0.0,0.0
1646243928.209802,6378,1646243928,209451707,,0.0,0.0,0.0,0.0,0.0,0.0,0.0,0.0,0.0,0.0,0.0,0.0,0.0,0.012451158836483955,-0.036720942705869675,-0.017269250005483627,0.0,0.0,0.0,0.0,0.0,0.0,0.0,0.0,0.0,-0.47025641798973083,0.1794871836900711,10.232563972473145,0.0,0.0,0.0,0.0,0.0,0.0,0.0,0.0,0.0
1646243928.2118883,6379,1646243928,211672790,,0.0,0.0,0.0,0.0,0.0,0.0,0.0,0.0,0.0,0.0,0.0,0.0,0.0,0.003929044120013714,-0.014350391924381256,-0.01939977891743183,0.0,0.0,0.0,0.0,0.0,0.0,0.0,0.0,0.0,-0.40743592381477356,0.4325641095638275,10.223589897155762,0.0,0.0,0.0,0.0,0.0,0.0,0.0,0.0,0.0
1646243928.2144744,6380,1646243928,213886451,,0.0,0.0,0.0,0.0,0.0,0.0,0.0,0.0,0.0,0.0,0.0,0.0,0.0,0.004994308575987816,-0.018611449748277664,0.01575394533574581,0.0,0.0,0.0,0.0,0.0,0.0,0.0,0.0,0.0,-0.07538461685180664,-0.12743589282035828,9.475128173828125,0.0,0.0,0.0,0.0,0.0,0.0,0.0,0.0,0.0
1646243928.2164009,6381,1646243928,216110786,,0.0,0.0,0.0,0.0,0.0,0.0,0.0,0.0,0.0,0.0,0.0,0.0,0.0,0.015646953135728836,-0.03352515026926994,0.022145532071590424,0.0,0.0,0.0,0.0,0.0,0.0,0.0,0.0,0.0,-0.001794871874153614,-0.0735897421836853,9.3889741897583,0.0,0.0,0.0,0.0,0.0,0.0,0.0,0.0,0.0
1646243928.2198737,6382,1646243928,218404829,,0.0,0.0,0.0,0.0,0.0,0.0,0.0,0.0,0.0,0.0,0.0,0.0,0.0,0.01777748018503189,-0.039916735142469406,0.002970772795379162,0.0,0.0,0.0,0.0,0.0,0.0,0.0,0.0,0.0,0.15974359214305878,0.20820513367652893,9.301025390625,0.0,0.0,0.0,0.0,0.0,0.0,0.0,0.0,0.0
1646243928.2208135,6383,1646243928,220585562,,0.0,0.0,0.0,0.0,0.0,0.0,0.0,0.0,0.0,0.0,0.0,0.0,0.0,0.001798515673726797,-0.013285127468407154,0.024276060983538628,0.0,0.0,0.0,0.0,0.0,0.0,0.0,0.0,0.0,-0.4864102602005005,0.21717949211597443,10.221795082092285,0.0,0.0,0.0,0.0,0.0,0.0,0.0,0.0,0.0
1646243928.223159,6384,1646243928,222833606,,0.0,0.0,0.0,0.0,0.0,0.0,0.0,0.0,0.0,0.0,0.0,0.0,0.0,0.0103206317871809,-0.04204726591706276,-0.006616605911403894,0.0,0.0,0.0,0.0,0.0,0.0,0.0,0.0,0.0,-0.016153845936059952,0.24051281809806824,9.774871826171875,0.0,0.0,0.0,0.0,0.0,0.0,0.0,0.0,0.0
1646243928.2258475,6385,1646243928,225063376,,0.0,0.0,0.0,0.0,0.0,0.0,0.0,0.0,0.0,0.0,0.0,0.0,0.0,0.03162591904401779,-0.03032935969531536,-0.008747135289013386,0.0,0.0,0.0,0.0,0.0,0.0,0.0,0.0,0.0,-0.3033333420753479,0.0412820540368557,10.110512733459473,0.0,0.0,0.0,0.0,0.0,0.0,0.0,0.0,0.0
1646243928.2275548,6386,1646243928,227243396,,0.0,0.0,0.0,0.0,0.0,0.0,0.0,0.0,0.0,0.0,0.0,0.0,0.0,0.02097327448427677,-0.04098200052976608,0.03492870554327965,0.0,0.0,0.0,0.0,0.0,0.0,0.0,0.0,0.0,0.12923076748847961,-0.003589743748307228,9.446410179138184,0.0,0.0,0.0,0.0,0.0,0.0,0.0,0.0,0.0
1646243928.2299051,6387,1646243928,229435316,,0.0,0.0,0.0,0.0,0.0,0.0,0.0,0.0,0.0,0.0,0.0,0.0,0.0,0.0220385380089283,-0.039916735142469406,-0.004486078396439552,0.0,0.0,0.0,0.0,0.0,0.0,0.0,0.0,0.0,0.2117948830127716,0.09333333373069763,9.396153450012207,0.0,0.0,0.0,0.0,0.0,0.0,0.0,0.0,0.0
1646243928.232049,6388,1646243928,231669429,,0.0,0.0,0.0,0.0,0.0,0.0,0.0,0.0,0.0,0.0,0.0,0.0,0.0,0.00712483748793602,-0.03885146975517273,0.02747185342013836,0.0,0.0,0.0,0.0,0.0,0.0,0.0,0.0,0.0,-0.31589746475219727,0.36974361538887024,9.990256309509277,0.0,0.0,0.0,0.0,0.0,0.0,0.0,0.0,0.0
1646243928.2344003,6389,1646243928,233902995,,0.0,0.0,0.0,0.0,0.0,0.0,0.0,0.0,0.0,0.0,0.0,0.0,0.0,0.02523433417081833,-0.047373585402965546,0.013623417355120182,0.0,0.0,0.0,0.0,0.0,0.0,0.0,0.0,0.0,-0.36974361538887024,0.20461538434028625,10.078205108642578,0.0,0.0,0.0,0.0,0.0,0.0,0.0,0.0,0.0
1646243928.2363682,6390,1646243928,236107018,,0.0,0.0,0.0,0.0,0.0,0.0,0.0,0.0,0.0,0.0,0.0,0.0,0.0,0.02523433417081833,-0.0495041161775589,0.03492870554327965,0.0,0.0,0.0,0.0,0.0,0.0,0.0,0.0,0.0,-0.4361538589000702,0.26923078298568726,10.117691993713379,0.0,0.0,0.0,0.0,0.0,0.0,0.0,0.0,0.0
1646243928.2386045,6391,1646243928,238287131,,0.0,0.0,0.0,0.0,0.0,0.0,0.0,0.0,0.0,0.0,0.0,0.0,0.0,-0.026963621377944946,-0.03139462321996689,0.03386344015598297,0.0,0.0,0.0,0.0,0.0,0.0,0.0,0.0,0.0,-0.2925640940666199,0.3302564322948456,9.956153869628906,0.0,0.0,0.0,0.0,0.0,0.0,0.0,0.0,0.0
1646243928.2408342,6392,1646243928,240564785,,0.0,0.0,0.0,0.0,0.0,0.0,0.0,0.0,0.0,0.0,0.0,0.0,0.0,-0.0035278063733130693,-0.02393777295947075,0.008297095075249672,0.0,0.0,0.0,0.0,0.0,0.0,0.0,0.0,0.0,0.1382051259279251,-0.28358975052833557,9.455384254455566,0.0,0.0,0.0,0.0,0.0,0.0,0.0,0.0,0.0
1646243928.2431238,6393,1646243928,242756762,,0.0,0.0,0.0,0.0,0.0,0.0,0.0,0.0,0.0,0.0,0.0,0.0,0.0,-0.0003320134710520506,-0.039916735142469406,0.02747185342013836,0.0,0.0,0.0,0.0,0.0,0.0,0.0,0.0,0.0,0.27820512652397156,0.03769230842590332,9.518204689025879,0.0,0.0,0.0,0.0,0.0,0.0,0.0,0.0,0.0
1646243928.2453918,6394,1646243928,244986107,,0.0,0.0,0.0,0.0,0.0,0.0,0.0,0.0,0.0,0.0,0.0,0.0,0.0,-0.016310978680849075,-0.05376517400145531,0.04451608657836914,0.0,0.0,0.0,0.0,0.0,0.0,0.0,0.0,0.0,0.33384618163108826,-0.1382051259279251,9.252564430236816,0.0,0.0,0.0,0.0,0.0,0.0,0.0,0.0,0.0
1646243928.247696,6395,1646243928,247232719,,0.0,0.0,0.0,0.0,0.0,0.0,0.0,0.0,0.0,0.0,0.0,0.0,0.0,-0.012049921788275242,-0.03245988488197327,0.013623417355120182,0.0,0.0,0.0,0.0,0.0,0.0,0.0,0.0,0.0,0.1238461583852768,0.24589744210243225,9.762307167053223,0.0,0.0,0.0,0.0,0.0,0.0,0.0,0.0,0.0
1646243928.249834,6396,1646243928,249477911,,0.0,0.0,0.0,0.0,0.0,0.0,0.0,0.0,0.0,0.0,0.0,0.0,0.0,-0.03655100241303444,-0.028198830783367157,0.02640658989548683,0.0,0.0,0.0,0.0,0.0,0.0,0.0,0.0,0.0,0.15435898303985596,-0.03589743748307228,9.412307739257812,0.0,0.0,0.0,0.0,0.0,0.0,0.0,0.0,0.0
1646243928.2521837,6397,1646243928,251765481,,0.0,0.0,0.0,0.0,0.0,0.0,0.0,0.0,0.0,0.0,0.0,0.0,0.0,-0.022702563554048538,-0.039916735142469406,0.03812449797987938,0.0,0.0,0.0,0.0,0.0,0.0,0.0,0.0,0.0,0.3356410562992096,-0.2853846251964569,9.59538459777832,0.0,0.0,0.0,0.0,0.0,0.0,0.0,0.0,0.0
1646243928.2544396,6398,1646243928,254031466,,0.0,0.0,0.0,0.0,0.0,0.0,0.0,0.0,0.0,0.0,0.0,0.0,0.0,-0.03548574075102806,-0.03352515026926994,0.028537116944789886,0.0,0.0,0.0,0.0,0.0,0.0,0.0,0.0,0.0,-0.3679487407207489,0.36974361538887024,9.859230041503906,0.0,0.0,0.0,0.0,0.0,0.0,0.0,0.0,0.0
1646243928.2565658,6399,1646243928,256283935,,0.0,0.0,0.0,0.0,0.0,0.0,0.0,0.0,0.0,0.0,0.0,0.0,0.0,-0.02589835785329342,-0.02713356725871563,0.037059236317873,0.0,0.0,0.0,0.0,0.0,0.0,0.0,0.0,0.0,0.4792307913303375,-0.3176923394203186,9.537948608398438,0.0,0.0,0.0,0.0,0.0,0.0,0.0,0.0,0.0
1646243928.2588663,6400,1646243928,258462469,,0.0,0.0,0.0,0.0,0.0,0.0,0.0,0.0,0.0,0.0,0.0,0.0,0.0,-0.023767828941345215,-0.021807242184877396,0.03492870554327965,0.0,0.0,0.0,0.0,0.0,0.0,0.0,0.0,0.0,0.001794871874153614,0.33743590116500854,9.913077354431152,0.0,0.0,0.0,0.0,0.0,0.0,0.0,0.0,0.0
1646243928.261879,6401,1646243928,260690269,,0.0,0.0,0.0,0.0,0.0,0.0,0.0,0.0,0.0,0.0,0.0,0.0,0.0,-0.013115186244249344,-0.021807242184877396,0.014688681811094284,0.0,0.0,0.0,0.0,0.0,0.0,0.0,0.0,0.0,-0.19564102590084076,-0.09692308306694031,10.004615783691406,0.0,0.0,0.0,0.0,0.0,0.0,0.0,0.0,0.0
1646243928.2633607,6402,1646243928,262992446,,0.0,0.0,0.0,0.0,0.0,0.0,0.0,0.0,0.0,0.0,0.0,0.0,0.0,-0.01098465733230114,-0.01648092083632946,0.03812449797987938,0.0,0.0,0.0,0.0,0.0,0.0,0.0,0.0,0.0,-0.1148717999458313,-0.030512820929288864,9.992051124572754,0.0,0.0,0.0,0.0,0.0,0.0,0.0,0.0,0.0
1646243928.265482,6403,1646243928,265162230,,0.0,0.0,0.0,0.0,0.0,0.0,0.0,0.0,0.0,0.0,0.0,0.0,0.0,-0.0035278063733130693,-0.03885146975517273,0.014688681811094284,0.0,0.0,0.0,0.0,0.0,0.0,0.0,0.0,0.0,0.33743590116500854,0.22794872522354126,9.931025505065918,0.0,0.0,0.0,0.0,0.0,0.0,0.0,0.0,0.0
1646243928.2676682,6404,1646243928,267394499,,0.0,0.0,0.0,0.0,0.0,0.0,0.0,0.0,0.0,0.0,0.0,0.0,0.0,-0.017376242205500603,-0.0026324838399887085,0.022145532071590424,0.0,0.0,0.0,0.0,0.0,0.0,0.0,0.0,0.0,0.19564102590084076,-0.14897435903549194,9.568461418151855,0.0,0.0,0.0,0.0,0.0,0.0,0.0,0.0,0.0
1646243928.2700574,6405,1646243928,269648161,,0.0,0.0,0.0,0.0,0.0,0.0,0.0,0.0,0.0,0.0,0.0,0.0,0.0,-0.0013972773449495435,-0.01115459855645895,0.014688681811094284,0.0,0.0,0.0,0.0,0.0,0.0,0.0,0.0,0.0,0.5671795010566711,0.12205128371715546,9.268717765808105,0.0,0.0,0.0,0.0,0.0,0.0,0.0,0.0,0.0
1646243928.2721002,6406,1646243928,271847533,,0.0,0.0,0.0,0.0,0.0,0.0,0.0,0.0,0.0,0.0,0.0,0.0,0.0,0.015646953135728836,-0.021807242184877396,0.0019055086886510253,0.0,0.0,0.0,0.0,0.0,0.0,0.0,0.0,0.0,0.6353846788406372,-0.05923077091574669,9.487691879272461,0.0,0.0,0.0,0.0,0.0,0.0,0.0,0.0,0.0
1646243928.2742698,6407,1646243928,274033773,,0.0,0.0,0.0,0.0,0.0,0.0,0.0,0.0,0.0,0.0,0.0,0.0,0.0,-0.016310978680849075,-0.02713356725871563,0.018949739634990692,0.0,0.0,0.0,0.0,0.0,0.0,0.0,0.0,0.0,0.7125641107559204,-0.46666666865348816,8.898974418640137,0.0,0.0,0.0,0.0,0.0,0.0,0.0,0.0,0.0
1646243928.276681,6408,1646243928,276342251,,0.0,0.0,0.0,0.0,0.0,0.0,0.0,0.0,0.0,0.0,0.0,0.0,0.0,0.013516423292458057,-0.01648092083632946,0.006166566163301468,0.0,0.0,0.0,0.0,0.0,0.0,0.0,0.0,0.0,0.36076924204826355,-0.01974359154701233,9.722820281982422,0.0,0.0,0.0,0.0,0.0,0.0,0.0,0.0,0.0
1646243928.2789006,6409,1646243928,278615829,,0.0,0.0,0.0,0.0,0.0,0.0,0.0,0.0,0.0,0.0,0.0,0.0,0.0,-0.013115186244249344,0.0005633095279335976,0.014688681811094284,0.0,0.0,0.0,0.0,0.0,0.0,0.0,0.0,0.0,-0.18128205835819244,-0.24948717653751373,10.05307674407959,0.0,0.0,0.0,0.0,0.0,0.0,0.0,0.0,0.0
1646243928.2812767,6410,1646243928,280887473,,0.0,0.0,0.0,0.0,0.0,0.0,0.0,0.0,0.0,0.0,0.0,0.0,0.0,-0.0003320134710520506,-0.02713356725871563,0.022145532071590424,0.0,0.0,0.0,0.0,0.0,0.0,0.0,0.0,0.0,0.15435898303985596,-0.03589743748307228,10.087179183959961,0.0,0.0,0.0,0.0,0.0,0.0,0.0,0.0,0.0
1646243928.283387,6411,1646243928,283120584,,0.0,0.0,0.0,0.0,0.0,0.0,0.0,0.0,0.0,0.0,0.0,0.0,0.0,-0.014180450700223446,0.0005633095279335976,0.0008402442326769233,0.0,0.0,0.0,0.0,0.0,0.0,0.0,0.0,0.0,0.02153846248984337,0.00897435937076807,9.769487380981445,0.0,0.0,0.0,0.0,0.0,0.0,0.0,0.0,0.0
1646243928.2856567,6412,1646243928,285305916,,0.0,0.0,0.0,0.0,0.0,0.0,0.0,0.0,0.0,0.0,0.0,0.0,0.0,0.004994308575987816,-0.006893542595207691,-0.0023555487859994173,0.0,0.0,0.0,0.0,0.0,0.0,0.0,0.0,0.0,0.4953846335411072,-0.0412820540368557,9.755127906799316,0.0,0.0,0.0,0.0,0.0,0.0,0.0,0.0,0.0
1646243928.2879527,6413,1646243928,287574010,,0.0,0.0,0.0,0.0,0.0,0.0,0.0,0.0,0.0,0.0,0.0,0.0,0.0,-0.0067235990427434444,0.008020159788429737,0.004036037251353264,0.0,0.0,0.0,0.0,0.0,0.0,0.0,0.0,0.0,0.829230785369873,-0.34641027450561523,9.19153881072998,0.0,0.0,0.0,0.0,0.0,0.0,0.0,0.0,0.0
1646243928.290175,6414,1646243928,289871089,,0.0,0.0,0.0,0.0,0.0,0.0,0.0,0.0,0.0,0.0,0.0,0.0,0.0,-0.012049921788275242,-0.006893542595207691,0.010427623987197876,0.0,0.0,0.0,0.0,0.0,0.0,0.0,0.0,0.0,0.4864102602005005,-0.4235897660255432,9.322564125061035,0.0,0.0,0.0,0.0,0.0,0.0,0.0,0.0,0.0
1646243928.292435,6415,1646243928,292091676,,0.0,0.0,0.0,0.0,0.0,0.0,0.0,0.0,0.0,0.0,0.0,0.0,0.0,-0.02163730002939701,0.0016285729361698031,-0.047096651047468185,0.0,0.0,0.0,0.0,0.0,0.0,0.0,0.0,0.0,0.4235897660255432,-0.10051282495260239,9.543333053588867,0.0,0.0,0.0,0.0,0.0,0.0,0.0,0.0,0.0
1646243928.2946267,6416,1646243928,294278639,,0.0,0.0,0.0,0.0,0.0,0.0,0.0,0.0,0.0,0.0,0.0,0.0,0.0,-0.0035278063733130693,0.010150688700377941,0.002970772795379162,0.0,0.0,0.0,0.0,0.0,0.0,0.0,0.0,0.0,0.09871795028448105,-0.21897436678409576,9.771282196044922,0.0,0.0,0.0,0.0,0.0,0.0,0.0,0.0,0.0
1646243928.2971108,6417,1646243928,296586111,,0.0,0.0,0.0,0.0,0.0,0.0,0.0,0.0,0.0,0.0,0.0,0.0,0.0,-0.004593071062117815,0.0026938372757285833,-0.030052425339818,0.0,0.0,0.0,0.0,0.0,0.0,0.0,0.0,0.0,0.3679487407207489,-0.08076923340559006,9.475128173828125,0.0,0.0,0.0,0.0,0.0,0.0,0.0,0.0,0.0
1646243928.2990744,6418,1646243928,298777125,,0.0,0.0,0.0,0.0,0.0,0.0,0.0,0.0,0.0,0.0,0.0,0.0,0.0,-0.01844150573015213,0.01973806880414486,0.008297095075249672,0.0,0.0,0.0,0.0,0.0,0.0,0.0,0.0,0.0,0.6856410503387451,-0.4451282024383545,9.265128135681152,0.0,0.0,0.0,0.0,0.0,0.0,0.0,0.0,0.0
1646243928.3013537,6419,1646243928,301009094,,0.0,0.0,0.0,0.0,0.0,0.0,0.0,0.0,0.0,0.0,0.0,0.0,0.0,-0.009919392876327038,0.017607539892196655,-0.027921894565224648,0.0,0.0,0.0,0.0,0.0,0.0,0.0,0.0,0.0,0.5761538743972778,-0.4558974504470825,9.353076934814453,0.0,0.0,0.0,0.0,0.0,0.0,0.0,0.0,0.0
1646243928.3044083,6420,1646243928,303258742,,0.0,0.0,0.0,0.0,0.0,0.0,0.0,0.0,0.0,0.0,0.0,0.0,0.0,0.008190101943910122,0.01973806880414486,-0.03857453912496567,0.0,0.0,0.0,0.0,0.0,0.0,0.0,0.0,0.0,0.3141025900840759,-0.03948718309402466,9.810769081115723,0.0,0.0,0.0,0.0,0.0,0.0,0.0,0.0,0.0
1646243928.3059208,6421,1646243928,305452970,,0.0,0.0,0.0,0.0,0.0,0.0,0.0,0.0,0.0,0.0,0.0,0.0,0.0,-0.004593071062117815,0.020803332328796387,-0.017269250005483627,0.0,0.0,0.0,0.0,0.0,0.0,0.0,0.0,0.0,0.1705128252506256,-0.2566666603088379,10.128461837768555,0.0,0.0,0.0,0.0,0.0,0.0,0.0,0.0,0.0
1646243928.3079662,6422,1646243928,307631957,,0.0,0.0,0.0,0.0,0.0,0.0,0.0,0.0,0.0,0.0,0.0,0.0,0.0,0.0220385380089283,0.029325447976589203,-0.02685662917792797,0.0,0.0,0.0,0.0,0.0,0.0,0.0,0.0,0.0,0.2441025674343109,0.12923076748847961,10.20025634765625,0.0,0.0,0.0,0.0,0.0,0.0,0.0,0.0,0.0
1646243928.3102012,6423,1646243928,309869988,,0.0,0.0,0.0,0.0,0.0,0.0,0.0,0.0,0.0,0.0,0.0,0.0,0.0,0.006059573031961918,0.03784756362438202,0.005101301707327366,0.0,0.0,0.0,0.0,0.0,0.0,0.0,0.0,0.0,0.13102564215660095,-0.21717949211597443,10.114103317260742,0.0,0.0,0.0,0.0,0.0,0.0,0.0,0.0,0.0
1646243928.3127017,6424,1646243928,312129130,,0.0,0.0,0.0,0.0,0.0,0.0,0.0,0.0,0.0,0.0,0.0,0.0,0.0,0.0103206317871809,0.03465176746249199,-0.02366083674132824,0.0,0.0,0.0,0.0,0.0,0.0,0.0,0.0,0.0,0.4558974504470825,0.06282051652669907,9.864616394042969,0.0,0.0,0.0,0.0,0.0,0.0,0.0,0.0,0.0
1646243928.3145669,6425,1646243928,314317311,,0.0,0.0,0.0,0.0,0.0,0.0,0.0,0.0,0.0,0.0,0.0,0.0,0.0,0.015646953135728836,0.03465176746249199,-0.01939977891743183,0.0,0.0,0.0,0.0,0.0,0.0,0.0,0.0,0.0,0.6335898041725159,-0.37871795892715454,9.369231224060059,0.0,0.0,0.0,0.0,0.0,0.0,0.0,0.0,0.0
1646243928.3168242,6426,1646243928,316501020,,0.0,0.0,0.0,0.0,0.0,0.0,0.0,0.0,0.0,0.0,0.0,0.0,0.0,0.0220385380089283,0.03039071336388588,-0.015138722956180573,0.0,0.0,0.0,0.0,0.0,0.0,0.0,0.0,0.0,0.5205128192901611,-0.05743589997291565,9.787436485290527,0.0,0.0,0.0,0.0,0.0,0.0,0.0,0.0,0.0
1646243928.3190203,6427,1646243928,318682792,,0.0,0.0,0.0,0.0,0.0,0.0,0.0,0.0,0.0,0.0,0.0,0.0,0.0,0.011385894380509853,0.028260184451937675,-0.027921894565224648,0.0,0.0,0.0,0.0,0.0,0.0,0.0,0.0,0.0,0.38769233226776123,-0.23512820899486542,9.825127601623535,0.0,0.0,0.0,0.0,0.0,0.0,0.0,0.0,0.0
1646243928.3212113,6428,1646243928,320890097,,0.0,0.0,0.0,0.0,0.0,0.0,0.0,0.0,0.0,0.0,0.0,0.0,0.0,0.00712483748793602,0.01973806880414486,0.013623417355120182,0.0,0.0,0.0,0.0,0.0,0.0,0.0,0.0,0.0,0.14897435903549194,-0.11128205060958862,10.132050514221191,0.0,0.0,0.0,0.0,0.0,0.0,0.0,0.0,0.0
1646243928.3234363,6429,1646243928,323097158,,0.0,0.0,0.0,0.0,0.0,0.0,0.0,0.0,0.0,0.0,0.0,0.0,0.0,-0.0024625419173389673,0.017607539892196655,-0.0023555487859994173,0.0,0.0,0.0,0.0,0.0,0.0,0.0,0.0,0.0,0.14897435903549194,0.16153846681118011,10.404870986938477,0.0,0.0,0.0,0.0,0.0,0.0,0.0,0.0,0.0
1646243928.3257017,6430,1646243928,325324865,,0.0,0.0,0.0,0.0,0.0,0.0,0.0,0.0,0.0,0.0,0.0,0.0,0.0,0.00712483748793602,0.027194919064641,-0.0023555487859994173,0.0,0.0,0.0,0.0,0.0,0.0,0.0,0.0,0.0,0.4594871997833252,-0.3410256505012512,9.478717803955078,0.0,0.0,0.0,0.0,0.0,0.0,0.0,0.0,0.0
1646243928.3278983,6431,1646243928,327552378,,0.0,0.0,0.0,0.0,0.0,0.0,0.0,0.0,0.0,0.0,0.0,0.0,0.0,-0.0067235990427434444,0.02612965553998947,0.00723183061927557,0.0,0.0,0.0,0.0,0.0,0.0,0.0,0.0,0.0,0.2064102590084076,0.1471794843673706,10.236153602600098,0.0,0.0,0.0,0.0,0.0,0.0,0.0,0.0,0.0
1646243928.3300834,6432,1646243928,329838350,,0.0,0.0,0.0,0.0,0.0,0.0,0.0,0.0,0.0,0.0,0.0,0.0,0.0,0.001798515673726797,0.03358650580048561,0.00723183061927557,0.0,0.0,0.0,0.0,0.0,0.0,0.0,0.0,0.0,-0.1148717999458313,-0.07179487496614456,10.282820701599121,0.0,0.0,0.0,0.0,0.0,0.0,0.0,0.0,0.0
1646243928.3325186,6433,1646243928,332082554,,0.0,0.0,0.0,0.0,0.0,0.0,0.0,0.0,0.0,0.0,0.0,0.0,0.0,0.0028637798968702555,0.032521240413188934,-0.006616605911403894,0.0,0.0,0.0,0.0,0.0,0.0,0.0,0.0,0.0,-0.00897435937076807,0.3123077154159546,10.24871826171875,0.0,0.0,0.0,0.0,0.0,0.0,0.0,0.0,0.0
1646243928.3346584,6434,1646243928,334274316,,0.0,0.0,0.0,0.0,0.0,0.0,0.0,0.0,0.0,0.0,0.0,0.0,0.0,-0.01098465733230114,0.031455978751182556,-0.0023555487859994173,0.0,0.0,0.0,0.0,0.0,0.0,0.0,0.0,0.0,0.03948718309402466,0.07897436618804932,10.071025848388672,0.0,0.0,0.0,0.0,0.0,0.0,0.0,0.0,0.0
1646243928.3368526,6435,1646243928,336496169,,0.0,0.0,0.0,0.0,0.0,0.0,0.0,0.0,0.0,0.0,0.0,0.0,0.0,0.015646953135728836,0.031455978751182556,-0.0012902843300253153,0.0,0.0,0.0,0.0,0.0,0.0,0.0,0.0,0.0,0.33743590116500854,0.05923077091574669,9.59538459777832,0.0,0.0,0.0,0.0,0.0,0.0,0.0,0.0,0.0
1646243928.3390687,6436,1646243928,338708537,,0.0,0.0,0.0,0.0,0.0,0.0,0.0,0.0,0.0,0.0,0.0,0.0,0.0,-0.017376242205500603,0.02293386124074459,-0.004486078396439552,0.0,0.0,0.0,0.0,0.0,0.0,0.0,0.0,0.0,0.4415384829044342,-0.2207692414522171,9.324358940124512,0.0,0.0,0.0,0.0,0.0,0.0,0.0,0.0,0.0
1646243928.3413014,6437,1646243928,340990598,,0.0,0.0,0.0,0.0,0.0,0.0,0.0,0.0,0.0,0.0,0.0,0.0,0.0,-0.013115186244249344,0.04423915222287178,0.01255815289914608,0.0,0.0,0.0,0.0,0.0,0.0,0.0,0.0,0.0,0.21358974277973175,-0.31948718428611755,9.209486961364746,0.0,0.0,0.0,0.0,0.0,0.0,0.0,0.0,0.0
1646243928.3436365,6438,1646243928,343184202,,0.0,0.0,0.0,0.0,0.0,0.0,0.0,0.0,0.0,0.0,0.0,0.0,0.0,-0.0003320134710520506,0.010150688700377941,-0.015138722956180573,0.0,0.0,0.0,0.0,0.0,0.0,0.0,0.0,0.0,0.1382051259279251,-0.003589743748307228,9.923846244812012,0.0,0.0,0.0,0.0,0.0,0.0,0.0,0.0,0.0
1646243928.346924,6439,1646243928,345362317,,0.0,0.0,0.0,0.0,0.0,0.0,0.0,0.0,0.0,0.0,0.0,0.0,0.0,0.0028637798968702555,0.017607539892196655,0.013623417355120182,0.0,0.0,0.0,0.0,0.0,0.0,0.0,0.0,0.0,-0.13641025125980377,-0.048461541533470154,9.993846893310547,0.0,0.0,0.0,0.0,0.0,0.0,0.0,0.0,0.0
1646243928.3478038,6440,1646243928,347547759,,0.0,0.0,0.0,0.0,0.0,0.0,0.0,0.0,0.0,0.0,0.0,0.0,0.0,-0.0013972773449495435,0.03465176746249199,-0.013008194044232368,0.0,0.0,0.0,0.0,0.0,0.0,0.0,0.0,0.0,0.3715384900569916,0.2064102590084076,9.462564468383789,0.0,0.0,0.0,0.0,0.0,0.0,0.0,0.0,0.0
1646243928.3499815,6441,1646243928,349714445,,0.0,0.0,0.0,0.0,0.0,0.0,0.0,0.0,0.0,0.0,0.0,0.0,0.0,-0.0077888634987175465,0.03784756362438202,0.004036037251353264,0.0,0.0,0.0,0.0,0.0,0.0,0.0,0.0,0.0,0.2997435927391052,-0.2943589687347412,9.54692268371582,0.0,0.0,0.0,0.0,0.0,0.0,0.0,0.0,0.0
1646243928.3521993,6442,1646243928,351898582,,0.0,0.0,0.0,0.0,0.0,0.0,0.0,0.0,0.0,0.0,0.0,0.0,0.0,-0.017376242205500603,0.04743494465947151,0.039189763367176056,0.0,0.0,0.0,0.0,0.0,0.0,0.0,0.0,0.0,0.1328205168247223,0.14179487526416779,9.726409912109375,0.0,0.0,0.0,0.0,0.0,0.0,0.0,0.0,0.0
1646243928.354598,6443,1646243928,354062989,,0.0,0.0,0.0,0.0,0.0,0.0,0.0,0.0,0.0,0.0,0.0,0.0,0.0,-0.02163730002939701,0.05063073709607124,-0.005551342852413654,0.0,0.0,0.0,0.0,0.0,0.0,0.0,0.0,0.0,-0.16153846681118011,0.2853846251964569,10.087179183959961,0.0,0.0,0.0,0.0,0.0,0.0,0.0,0.0,0.0
1646243928.3566654,6444,1646243928,356395346,,0.0,0.0,0.0,0.0,0.0,0.0,0.0,0.0,0.0,0.0,0.0,0.0,0.0,0.006059573031961918,0.023999126628041267,0.009362359531223774,0.0,0.0,0.0,0.0,0.0,0.0,0.0,0.0,0.0,-0.1328205168247223,0.0825641080737114,10.19487190246582,0.0,0.0,0.0,0.0,0.0,0.0,0.0,0.0,0.0
1646243928.3589406,6445,1646243928,358604420,,0.0,0.0,0.0,0.0,0.0,0.0,0.0,0.0,0.0,0.0,0.0,0.0,0.0,-0.022702563554048538,0.058087583631277084,-0.021530307829380035,0.0,0.0,0.0,0.0,0.0,0.0,0.0,0.0,0.0,0.046666666865348816,0.2764102518558502,9.913077354431152,0.0,0.0,0.0,0.0,0.0,0.0,0.0,0.0,0.0
1646243928.3611574,6446,1646243928,360803316,,0.0,0.0,0.0,0.0,0.0,0.0,0.0,0.0,0.0,0.0,0.0,0.0,0.0,0.011385894380509853,0.03784756362438202,-0.0012902843300253153,0.0,0.0,0.0,0.0,0.0,0.0,0.0,0.0,0.0,0.3769230842590332,-0.1058974415063858,9.49128246307373,0.0,0.0,0.0,0.0,0.0,0.0,0.0,0.0,0.0
1646243928.36335,6447,1646243928,362999143,,0.0,0.0,0.0,0.0,0.0,0.0,0.0,0.0,0.0,0.0,0.0,0.0,0.0,-0.008854128420352936,0.020803332328796387,-0.03324821963906288,0.0,0.0,0.0,0.0,0.0,0.0,0.0,0.0,0.0,0.19923077523708344,0.27282050251960754,9.444615364074707,0.0,0.0,0.0,0.0,0.0,0.0,0.0,0.0,0.0
1646243928.3655522,6448,1646243928,365192505,,0.0,0.0,0.0,0.0,0.0,0.0,0.0,0.0,0.0,0.0,0.0,0.0,0.0,0.01777748018503189,0.01973806880414486,-0.0023555487859994173,0.0,0.0,0.0,0.0,0.0,0.0,0.0,0.0,0.0,0.37871795892715454,-0.16871795058250427,9.331538200378418,0.0,0.0,0.0,0.0,0.0,0.0,0.0,0.0,0.0
1646243928.3677175,6449,1646243928,367420430,,0.0,0.0,0.0,0.0,0.0,0.0,0.0,0.0,0.0,0.0,0.0,0.0,0.0,0.0028637798968702555,0.04104335606098175,0.006166566163301468,0.0,0.0,0.0,0.0,0.0,0.0,0.0,0.0,0.0,-0.05205128341913223,0.2620512843132019,9.746153831481934,0.0,0.0,0.0,0.0,0.0,0.0,0.0,0.0,0.0
1646243928.3699265,6450,1646243928,369594479,,0.0,0.0,0.0,0.0,0.0,0.0,0.0,0.0,0.0,0.0,0.0,0.0,0.0,0.0103206317871809,0.04210862144827843,-0.022595571354031563,0.0,0.0,0.0,0.0,0.0,0.0,0.0,0.0,0.0,-0.23692308366298676,0.09512820839881897,10.067436218261719,0.0,0.0,0.0,0.0,0.0,0.0,0.0,0.0,0.0
