Time,header.seq,header.stamp.secs,header.stamp.nsecs,header.frame_id,orientation.x,orientation.y,orientation.z,orientation.w,orientation_covariance_0,orientation_covariance_1,orientation_covariance_2,orientation_covariance_3,orientation_covariance_4,orientation_covariance_5,orientation_covariance_6,orientation_covariance_7,orientation_covariance_8,angular_velocity.x,angular_velocity.y,angular_velocity.z,angular_velocity_covariance_0,angular_velocity_covariance_1,angular_velocity_covariance_2,angular_velocity_covariance_3,angular_velocity_covariance_4,angular_velocity_covariance_5,angular_velocity_covariance_6,angular_velocity_covariance_7,angular_velocity_covariance_8,linear_acceleration.x,linear_acceleration.y,linear_acceleration.z,linear_acceleration_covariance_0,linear_acceleration_covariance_1,linear_acceleration_covariance_2,linear_acceleration_covariance_3,linear_acceleration_covariance_4,linear_acceleration_covariance_5,linear_acceleration_covariance_6,linear_acceleration_covariance_7,linear_acceleration_covariance_8
1646350917.5103455,10160,1646350917,509857398,,0.0,0.0,0.0,0.0,0.0,0.0,0.0,0.0,0.0,0.0,0.0,0.0,0.0,-0.050217997282743454,-0.7327848076820374,0.06332508474588394,0.0,0.0,0.0,0.0,0.0,0.0,0.0,0.0,0.0,-0.3625641167163849,0.37871795892715454,9.929230690002441,0.0,0.0,0.0,0.0,0.0,0.0,0.0,0.0,0.0
1646350917.512321,10161,1646350917,512112275,,0.0,0.0,0.0,0.0,0.0,0.0,0.0,0.0,0.0,0.0,0.0,0.0,0.0,-0.009737951681017876,-0.7487637996673584,0.0281713604927063,0.0,0.0,0.0,0.0,0.0,0.0,0.0,0.0,0.0,-0.5258974432945251,0.42897436022758484,9.686923027038574,0.0,0.0,0.0,0.0,0.0,0.0,0.0,0.0,0.0
1646350917.5145943,10162,1646350917,514290846,,0.0,0.0,0.0,0.0,0.0,0.0,0.0,0.0,0.0,0.0,0.0,0.0,0.0,-0.016129538416862488,-0.7647427320480347,0.03136715292930603,0.0,0.0,0.0,0.0,0.0,0.0,0.0,0.0,0.0,-0.6443589925765991,-0.09871795028448105,9.9005126953125,0.0,0.0,0.0,0.0,0.0,0.0,0.0,0.0,0.0
1646350917.5168324,10163,1646350917,516517512,,0.0,0.0,0.0,0.0,0.0,0.0,0.0,0.0,0.0,0.0,0.0,0.0,0.0,0.008371543139219284,-0.7871133089065552,0.014322925359010696,0.0,0.0,0.0,0.0,0.0,0.0,0.0,0.0,0.0,-0.21000000834465027,0.2207692414522171,9.932821273803711,0.0,0.0,0.0,0.0,0.0,0.0,0.0,0.0,0.0
1646350917.51914,10164,1646350917,518713853,,0.0,0.0,0.0,0.0,0.0,0.0,0.0,0.0,0.0,0.0,0.0,0.0,0.0,0.030742093920707703,-0.7913743853569031,0.06012929230928421,0.0,0.0,0.0,0.0,0.0,0.0,0.0,0.0,0.0,-0.7358974814414978,-0.12205128371715546,9.559487342834473,0.0,0.0,0.0,0.0,0.0,0.0,0.0,0.0,0.0
1646350917.5213397,10165,1646350917,520932168,,0.0,0.0,0.0,0.0,0.0,0.0,0.0,0.0,0.0,0.0,0.0,0.0,0.0,0.033937886357307434,-0.7935048937797546,0.021779777482151985,0.0,0.0,0.0,0.0,0.0,0.0,0.0,0.0,0.0,-0.3212820589542389,0.5007692575454712,9.934615135192871,0.0,0.0,0.0,0.0,0.0,0.0,0.0,0.0,0.0
1646350917.5233161,10166,1646350917,523128360,,0.0,0.0,0.0,0.0,0.0,0.0,0.0,0.0,0.0,0.0,0.0,0.0,0.0,0.06909161061048508,-0.8201364874839783,0.02071451209485531,0.0,0.0,0.0,0.0,0.0,0.0,0.0,0.0,0.0,0.003589743748307228,-0.1974359005689621,9.656410217285156,0.0,0.0,0.0,0.0,0.0,0.0,0.0,0.0,0.0
1646350917.525739,10167,1646350917,525324901,,0.0,0.0,0.0,0.0,0.0,0.0,0.0,0.0,0.0,0.0,0.0,0.0,0.0,0.08400531858205795,-0.8137449026107788,0.062259819358587265,0.0,0.0,0.0,0.0,0.0,0.0,0.0,0.0,0.0,-0.6192308068275452,-0.19923077523708344,10.00820541381836,0.0,0.0,0.0,0.0,0.0,0.0,0.0,0.0,0.0
1646350917.5279,10168,1646350917,527604215,,0.0,0.0,0.0,0.0,0.0,0.0,0.0,0.0,0.0,0.0,0.0,0.0,0.0,0.10850638896226883,-0.8243975639343262,0.02071451209485531,0.0,0.0,0.0,0.0,0.0,0.0,0.0,0.0,0.0,-0.5348718166351318,0.1974359005689621,10.230769157409668,0.0,0.0,0.0,0.0,0.0,0.0,0.0,0.0,0.0
1646350917.530132,10169,1646350917,529784441,,0.0,0.0,0.0,0.0,0.0,0.0,0.0,0.0,0.0,0.0,0.0,0.0,0.0,0.09146217256784439,-0.8478333950042725,0.05267244204878807,0.0,0.0,0.0,0.0,0.0,0.0,0.0,0.0,0.0,-0.23333333432674408,-0.1148717999458313,10.038718223571777,0.0,0.0,0.0,0.0,0.0,0.0,0.0,0.0,0.0
1646350917.5324147,10170,1646350917,532051779,,0.0,0.0,0.0,0.0,0.0,0.0,0.0,0.0,0.0,0.0,0.0,0.0,0.0,0.09785374253988266,-0.8030923008918762,0.039889272302389145,0.0,0.0,0.0,0.0,0.0,0.0,0.0,0.0,0.0,-0.08615384995937347,-0.032307691872119904,10.23794937133789,0.0,0.0,0.0,0.0,0.0,0.0,0.0,0.0,0.0
1646350917.5346863,10171,1646350917,534230129,,0.0,0.0,0.0,0.0,0.0,0.0,0.0,0.0,0.0,0.0,0.0,0.0,0.0,0.09785374253988266,-0.849963903427124,0.0420197993516922,0.0,0.0,0.0,0.0,0.0,0.0,0.0,0.0,0.0,0.746666669845581,-0.4182051420211792,10.367179870605469,0.0,0.0,0.0,0.0,0.0,0.0,0.0,0.0,0.0
1646350917.5367615,10172,1646350917,536397692,,0.0,0.0,0.0,0.0,0.0,0.0,0.0,0.0,0.0,0.0,0.0,0.0,0.0,0.06589581817388535,-0.8307891488075256,0.04095453768968582,0.0,0.0,0.0,0.0,0.0,0.0,0.0,0.0,0.0,0.5097435712814331,0.1328205168247223,8.863077163696289,0.0,0.0,0.0,0.0,0.0,0.0,0.0,0.0,0.0
1646350917.5388997,10173,1646350917,538576952,,0.0,0.0,0.0,0.0,0.0,0.0,0.0,0.0,0.0,0.0,0.0,0.0,0.0,0.06056949496269226,-0.8446375727653503,0.02391030639410019,0.0,0.0,0.0,0.0,0.0,0.0,0.0,0.0,0.0,0.09153846651315689,-0.08076923340559006,11.059999465942383,0.0,0.0,0.0,0.0,0.0,0.0,0.0,0.0,0.0
1646350917.5411818,10174,1646350917,540764050,,0.0,0.0,0.0,0.0,0.0,0.0,0.0,0.0,0.0,0.0,0.0,0.0,0.0,0.08507058769464493,-0.8467681407928467,0.036693476140499115,0.0,0.0,0.0,0.0,0.0,0.0,0.0,0.0,0.0,-0.14358974993228912,-0.3715384900569916,9.658205032348633,0.0,0.0,0.0,0.0,0.0,0.0,0.0,0.0,0.0
1646350917.5433614,10175,1646350917,542999074,,0.0,0.0,0.0,0.0,0.0,0.0,0.0,0.0,0.0,0.0,0.0,0.0,0.0,0.06163476034998894,-0.8361154794692993,0.024975569918751717,0.0,0.0,0.0,0.0,0.0,0.0,0.0,0.0,0.0,-0.6353846788406372,-0.9333333373069763,10.099743843078613,0.0,0.0,0.0,0.0,0.0,0.0,0.0,0.0,0.0
1646350917.5455444,10176,1646350917,545175832,,0.0,0.0,0.0,0.0,0.0,0.0,0.0,0.0,0.0,0.0,0.0,0.0,0.0,0.013697865419089794,-0.8180059790611267,0.03456294909119606,0.0,0.0,0.0,0.0,0.0,0.0,0.0,0.0,0.0,-0.3141025900840759,0.45769232511520386,9.270512580871582,0.0,0.0,0.0,0.0,0.0,0.0,0.0,0.0,0.0
1646350917.5477233,10177,1646350917,547348678,,0.0,0.0,0.0,0.0,0.0,0.0,0.0,0.0,0.0,0.0,0.0,0.0,0.0,0.04672106355428696,-0.8446375727653503,0.0281713604927063,0.0,0.0,0.0,0.0,0.0,0.0,0.0,0.0,0.0,0.28179487586021423,0.07897436618804932,10.313332557678223,0.0,0.0,0.0,0.0,0.0,0.0,0.0,0.0,0.0
1646350917.549942,10178,1646350917,549541419,,0.0,0.0,0.0,0.0,0.0,0.0,0.0,0.0,0.0,0.0,0.0,0.0,0.0,0.030742093920707703,-0.8329196572303772,0.018583983182907104,0.0,0.0,0.0,0.0,0.0,0.0,0.0,0.0,0.0,-0.09692308306694031,-0.7215384840965271,9.125127792358398,0.0,0.0,0.0,0.0,0.0,0.0,0.0,0.0,0.0
1646350917.5519383,10179,1646350917,551725156,,0.0,0.0,0.0,0.0,0.0,0.0,0.0,0.0,0.0,0.0,0.0,0.0,0.0,0.001979956403374672,-0.8105491399765015,0.0281713604927063,0.0,0.0,0.0,0.0,0.0,0.0,0.0,0.0,0.0,0.025128206238150597,0.1705128252506256,9.975897789001465,0.0,0.0,0.0,0.0,0.0,0.0,0.0,0.0,0.0
1646350917.55421,10180,1646350917,553906861,,0.0,0.0,0.0,0.0,0.0,0.0,0.0,0.0,0.0,0.0,0.0,0.0,0.0,0.001979956403374672,-0.8243975639343262,0.05267244204878807,0.0,0.0,0.0,0.0,0.0,0.0,0.0,0.0,0.0,-0.787948727607727,0.2441025674343109,9.44820499420166,0.0,0.0,0.0,0.0,0.0,0.0,0.0,0.0,0.0
1646350917.556497,10181,1646350917,556099995,,0.0,0.0,0.0,0.0,0.0,0.0,0.0,0.0,0.0,0.0,0.0,0.0,0.0,0.0030452206265181303,-0.8169407248497009,0.000474488188046962,0.0,0.0,0.0,0.0,0.0,0.0,0.0,0.0,0.0,-0.014358974993228912,0.3823077082633972,9.406923294067383,0.0,0.0,0.0,0.0,0.0,0.0,0.0,0.0,0.0
1646350917.5585532,10182,1646350917,558235572,,0.0,0.0,0.0,0.0,0.0,0.0,0.0,0.0,0.0,0.0,0.0,0.0,0.0,0.0030452206265181303,-0.8169407248497009,0.03456294909119606,0.0,0.0,0.0,0.0,0.0,0.0,0.0,0.0,0.0,0.2028205245733261,-0.22794872522354126,9.358461380004883,0.0,0.0,0.0,0.0,0.0,0.0,0.0,0.0,0.0
1646350917.5608346,10183,1646350917,560479642,,0.0,0.0,0.0,0.0,0.0,0.0,0.0,0.0,0.0,0.0,0.0,0.0,0.0,0.014763129875063896,-0.7839174866676331,0.02710609696805477,0.0,0.0,0.0,0.0,0.0,0.0,0.0,0.0,0.0,0.07897436618804932,0.2979487180709839,9.581025123596191,0.0,0.0,0.0,0.0,0.0,0.0,0.0,0.0,0.0
1646350917.5631003,10184,1646350917,562647038,,0.0,0.0,0.0,0.0,0.0,0.0,0.0,0.0,0.0,0.0,0.0,0.0,0.0,0.0009146920638158917,-0.7658080458641052,0.029236625880002975,0.0,0.0,0.0,0.0,0.0,0.0,0.0,0.0,0.0,0.8166666626930237,0.20461538434028625,8.724871635437012,0.0,0.0,0.0,0.0,0.0,0.0,0.0,0.0,0.0
1646350917.5650685,10185,1646350917,564794842,,0.0,0.0,0.0,0.0,0.0,0.0,0.0,0.0,0.0,0.0,0.0,0.0,0.0,0.0009146920638158917,-0.7615469694137573,-0.0016560404328629375,0.0,0.0,0.0,0.0,0.0,0.0,0.0,0.0,0.0,0.22435897588729858,0.6658974885940552,9.726409912109375,0.0,0.0,0.0,0.0,0.0,0.0,0.0,0.0,0.0
1646350917.5673916,10186,1646350917,567039259,,0.0,0.0,0.0,0.0,0.0,0.0,0.0,0.0,0.0,0.0,0.0,0.0,0.0,0.013697865419089794,-0.766873300075531,0.008996603079140186,0.0,0.0,0.0,0.0,0.0,0.0,0.0,0.0,0.0,0.08615384995937347,0.1238461583852768,9.247179985046387,0.0,0.0,0.0,0.0,0.0,0.0,0.0,0.0,0.0
1646350917.5696378,10187,1646350917,569205153,,0.0,0.0,0.0,0.0,0.0,0.0,0.0,0.0,0.0,0.0,0.0,0.0,0.0,0.014763129875063896,-0.7370458841323853,0.017518719658255577,0.0,0.0,0.0,0.0,0.0,0.0,0.0,0.0,0.0,-0.05743589997291565,-0.010769231244921684,9.439230918884277,0.0,0.0,0.0,0.0,0.0,0.0,0.0,0.0,0.0
1646350917.5718327,10188,1646350917,571395920,,0.0,0.0,0.0,0.0,0.0,0.0,0.0,0.0,0.0,0.0,0.0,0.0,0.0,0.014763129875063896,-0.72958904504776,0.010061867535114288,0.0,0.0,0.0,0.0,0.0,0.0,0.0,0.0,0.0,0.08435897529125214,0.4810256361961365,9.536153793334961,0.0,0.0,0.0,0.0,0.0,0.0,0.0,0.0,0.0
1646350917.5740154,10189,1646350917,573580436,,0.0,0.0,0.0,0.0,0.0,0.0,0.0,0.0,0.0,0.0,0.0,0.0,0.0,0.03606841340661049,-0.6976311206817627,0.01112713199108839,0.0,0.0,0.0,0.0,0.0,0.0,0.0,0.0,0.0,0.49358975887298584,0.09333333373069763,9.110769271850586,0.0,0.0,0.0,0.0,0.0,0.0,0.0,0.0,0.0
1646350917.5761085,10190,1646350917,575754677,,0.0,0.0,0.0,0.0,0.0,0.0,0.0,0.0,0.0,0.0,0.0,0.0,0.0,0.04885159060359001,-0.6784564256668091,0.0047355457209050655,0.0,0.0,0.0,0.0,0.0,0.0,0.0,0.0,0.0,0.22256410121917725,-0.023333333432674408,9.622307777404785,0.0,0.0,0.0,0.0,0.0,0.0,0.0,0.0,0.0
1646350917.5786643,10191,1646350917,577941850,,0.0,0.0,0.0,0.0,0.0,0.0,0.0,0.0,0.0,0.0,0.0,0.0,0.0,0.037133678793907166,-0.6976311206817627,-0.005917098838835955,0.0,0.0,0.0,0.0,0.0,0.0,0.0,0.0,0.0,-0.08974359184503555,-0.09153846651315689,9.520000457763672,0.0,0.0,0.0,0.0,0.0,0.0,0.0,0.0,0.0
1646350917.5814126,10192,1646350917,580169246,,0.0,0.0,0.0,0.0,0.0,0.0,0.0,0.0,0.0,0.0,0.0,0.0,0.0,0.07441793382167816,-0.6741953492164612,-0.012308684177696705,0.0,0.0,0.0,0.0,0.0,0.0,0.0,0.0,0.0,-0.2853846251964569,0.4541025757789612,9.787436485290527,0.0,0.0,0.0,0.0,0.0,0.0,0.0,0.0,0.0
1646350917.5827312,10193,1646350917,582411337,,0.0,0.0,0.0,0.0,0.0,0.0,0.0,0.0,0.0,0.0,0.0,0.0,0.0,0.07228740304708481,-0.6358458399772644,0.018583983182907104,0.0,0.0,0.0,0.0,0.0,0.0,0.0,0.0,0.0,-0.49358975887298584,0.5330769419670105,9.4858980178833,0.0,0.0,0.0,0.0,0.0,0.0,0.0,0.0,0.0
1646350917.58491,10194,1646350917,584634092,,0.0,0.0,0.0,0.0,0.0,0.0,0.0,0.0,0.0,0.0,0.0,0.0,0.0,0.07974426448345184,-0.6347805857658386,-0.006982361897826195,0.0,0.0,0.0,0.0,0.0,0.0,0.0,0.0,0.0,0.07717949151992798,0.09871795028448105,9.564871788024902,0.0,0.0,0.0,0.0,0.0,0.0,0.0,0.0,0.0
1646350917.5871623,10195,1646350917,586919447,,0.0,0.0,0.0,0.0,0.0,0.0,0.0,0.0,0.0,0.0,0.0,0.0,0.0,0.0680263489484787,-0.6294542551040649,-0.029352914541959763,0.0,0.0,0.0,0.0,0.0,0.0,0.0,0.0,0.0,0.36076924204826355,0.03589743748307228,8.99589729309082,0.0,0.0,0.0,0.0,0.0,0.0,0.0,0.0,0.0
1646350917.5895538,10196,1646350917,589148754,,0.0,0.0,0.0,0.0,0.0,0.0,0.0,0.0,0.0,0.0,0.0,0.0,0.0,0.0541779100894928,-0.6049531698226929,0.029236625880002975,0.0,0.0,0.0,0.0,0.0,0.0,0.0,0.0,0.0,0.2207692414522171,0.014358974993228912,9.286666870117188,0.0,0.0,0.0,0.0,0.0,0.0,0.0,0.0,0.0
1646350917.5916948,10197,1646350917,591343393,,0.0,0.0,0.0,0.0,0.0,0.0,0.0,0.0,0.0,0.0,0.0,0.0,0.0,0.10850638896226883,-0.6198668479919434,-0.03787503018975258,0.0,0.0,0.0,0.0,0.0,0.0,0.0,0.0,0.0,0.2764102518558502,0.13102564215660095,9.498461723327637,0.0,0.0,0.0,0.0,0.0,0.0,0.0,0.0,0.0
1646350917.5937963,10198,1646350917,593514399,,0.0,0.0,0.0,0.0,0.0,0.0,0.0,0.0,0.0,0.0,0.0,0.0,0.0,0.09039691090583801,-0.5666036605834961,-0.018700269982218742,0.0,0.0,0.0,0.0,0.0,0.0,0.0,0.0,0.0,0.11307692527770996,-0.3679487407207489,9.520000457763672,0.0,0.0,0.0,0.0,0.0,0.0,0.0,0.0,0.0
1646350917.596001,10199,1646350917,595710582,,0.0,0.0,0.0,0.0,0.0,0.0,0.0,0.0,0.0,0.0,0.0,0.0,0.0,0.07122214138507843,-0.5527551770210266,-0.0005907765007577837,0.0,0.0,0.0,0.0,0.0,0.0,0.0,0.0,0.0,0.40205129981040955,0.31948718428611755,9.997435569763184,0.0,0.0,0.0,0.0,0.0,0.0,0.0,0.0,0.0
1646350917.5983593,10200,1646350917,597918584,,0.0,0.0,0.0,0.0,0.0,0.0,0.0,0.0,0.0,0.0,0.0,0.0,0.0,0.09039691090583801,-0.5538204312324524,0.008996603079140186,0.0,0.0,0.0,0.0,0.0,0.0,0.0,0.0,0.0,0.8812820911407471,-0.3176923394203186,9.690512657165527,0.0,0.0,0.0,0.0,0.0,0.0,0.0,0.0,0.0
1646350917.600584,10201,1646350917,600134066,,0.0,0.0,0.0,0.0,0.0,0.0,0.0,0.0,0.0,0.0,0.0,0.0,0.0,0.07228740304708481,-0.5378414392471313,-0.017635004594922066,0.0,0.0,0.0,0.0,0.0,0.0,0.0,0.0,0.0,0.43794873356819153,-0.11128205060958862,10.175127983093262,0.0,0.0,0.0,0.0,0.0,0.0,0.0,0.0,0.0
1646350917.6027389,10202,1646350917,602319614,,0.0,0.0,0.0,0.0,0.0,0.0,0.0,0.0,0.0,0.0,0.0,0.0,0.0,0.04139474034309387,-0.4984266757965088,-0.038940295577049255,0.0,0.0,0.0,0.0,0.0,0.0,0.0,0.0,0.0,0.3410256505012512,0.005384615622460842,9.616922378540039,0.0,0.0,0.0,0.0,0.0,0.0,0.0,0.0,0.0
1646350917.6048856,10203,1646350917,604507373,,0.0,0.0,0.0,0.0,0.0,0.0,0.0,0.0,0.0,0.0,0.0,0.0,0.0,0.029676830396056175,-0.47605612874031067,-0.009112890809774399,0.0,0.0,0.0,0.0,0.0,0.0,0.0,0.0,0.0,0.45230770111083984,-0.36615386605262756,10.577178955078125,0.0,0.0,0.0,0.0,0.0,0.0,0.0,0.0,0.0
1646350917.6069024,10204,1646350917,606702012,,0.0,0.0,0.0,0.0,0.0,0.0,0.0,0.0,0.0,0.0,0.0,0.0,0.0,0.04352526739239693,-0.4291844964027405,-0.02296132780611515,0.0,0.0,0.0,0.0,0.0,0.0,0.0,0.0,0.0,0.15076923370361328,0.08076923340559006,10.004615783691406,0.0,0.0,0.0,0.0,0.0,0.0,0.0,0.0,0.0
1646350917.6092596,10205,1646350917,608907350,,0.0,0.0,0.0,0.0,0.0,0.0,0.0,0.0,0.0,0.0,0.0,0.0,0.0,0.006241013761609793,-0.40255287289619446,-0.014439214020967484,0.0,0.0,0.0,0.0,0.0,0.0,0.0,0.0,0.0,0.31051284074783325,-0.3356410562992096,9.9399995803833,0.0,0.0,0.0,0.0,0.0,0.0,0.0,0.0,0.0
1646350917.6114347,10206,1646350917,611147260,,0.0,0.0,0.0,0.0,0.0,0.0,0.0,0.0,0.0,0.0,0.0,0.0,0.0,-0.007607422769069672,-0.36526861786842346,-0.03787503018975258,0.0,0.0,0.0,0.0,0.0,0.0,0.0,0.0,0.0,0.29615384340286255,0.4810256361961365,10.492820739746094,0.0,0.0,0.0,0.0,0.0,0.0,0.0,0.0,0.0
1646350917.6136312,10207,1646350917,613286411,,0.0,0.0,0.0,0.0,0.0,0.0,0.0,0.0,0.0,0.0,0.0,0.0,0.0,-0.010803216136991978,-0.3492896556854248,-0.035744503140449524,0.0,0.0,0.0,0.0,0.0,0.0,0.0,0.0,0.0,0.2530769407749176,-0.048461541533470154,10.29897403717041,0.0,0.0,0.0,0.0,0.0,0.0,0.0,0.0,0.0
1646350917.615784,10208,1646350917,615504773,,0.0,0.0,0.0,0.0,0.0,0.0,0.0,0.0,0.0,0.0,0.0,0.0,0.0,-0.008672687225043774,-0.33650651574134827,-0.038940295577049255,0.0,0.0,0.0,0.0,0.0,0.0,0.0,0.0,0.0,0.3212820589542389,0.08615384995937347,9.769487380981445,0.0,0.0,0.0,0.0,0.0,0.0,0.0,0.0,0.0
1646350917.6181703,10209,1646350917,617779100,,0.0,0.0,0.0,0.0,0.0,0.0,0.0,0.0,0.0,0.0,0.0,0.0,0.0,-0.032108504325151443,-0.30028751492500305,-0.03467923775315285,0.0,0.0,0.0,0.0,0.0,0.0,0.0,0.0,0.0,0.5941025614738464,-0.06102564185857773,9.73717975616455,0.0,0.0,0.0,0.0,0.0,0.0,0.0,0.0,0.0
1646350917.6203313,10210,1646350917,619950667,,0.0,0.0,0.0,0.0,0.0,0.0,0.0,0.0,0.0,0.0,0.0,0.0,0.0,-0.02997797727584839,-0.2885696291923523,-0.025091856718063354,0.0,0.0,0.0,0.0,0.0,0.0,0.0,0.0,0.0,0.23512820899486542,0.5312820672988892,9.724615097045898,0.0,0.0,0.0,0.0,0.0,0.0,0.0,0.0,0.0
1646350917.62325,10211,1646350917,622205313,,0.0,0.0,0.0,0.0,0.0,0.0,0.0,0.0,0.0,0.0,0.0,0.0,0.0,-0.038500092923641205,-0.2661990523338318,-0.04746240749955177,0.0,0.0,0.0,0.0,0.0,0.0,0.0,0.0,0.0,0.6874359250068665,0.27820512652397156,9.216666221618652,0.0,0.0,0.0,0.0,0.0,0.0,0.0,0.0,0.0
1646350917.624704,10212,1646350917,624405347,,0.0,0.0,0.0,0.0,0.0,0.0,0.0,0.0,0.0,0.0,0.0,0.0,0.0,-0.05980537831783295,-0.25448116660118103,-0.03787503018975258,0.0,0.0,0.0,0.0,0.0,0.0,0.0,0.0,0.0,0.4038461744785309,0.19564102590084076,9.385384559631348,0.0,0.0,0.0,0.0,0.0,0.0,0.0,0.0,0.0
1646350917.6268418,10213,1646350917,626560316,,0.0,0.0,0.0,0.0,0.0,0.0,0.0,0.0,0.0,0.0,0.0,0.0,0.0,-0.04915273189544678,-0.22571901977062225,-0.06237610802054405,0.0,0.0,0.0,0.0,0.0,0.0,0.0,0.0,0.0,0.7143589854240417,0.4810256361961365,9.441025733947754,0.0,0.0,0.0,0.0,0.0,0.0,0.0,0.0,0.0
1646350917.629036,10214,1646350917,628745619,,0.0,0.0,0.0,0.0,0.0,0.0,0.0,0.0,0.0,0.0,0.0,0.0,0.0,-0.042761147022247314,-0.23104533553123474,-0.02722238563001156,0.0,0.0,0.0,0.0,0.0,0.0,0.0,0.0,0.0,0.5707692503929138,0.06641025841236115,8.963589668273926,0.0,0.0,0.0,0.0,0.0,0.0,0.0,0.0,0.0
1646350917.6313612,10215,1646350917,630966656,,0.0,0.0,0.0,0.0,0.0,0.0,0.0,0.0,0.0,0.0,0.0,0.0,0.0,-0.031043240800499916,-0.18950001895427704,-0.03467923775315285,0.0,0.0,0.0,0.0,0.0,0.0,0.0,0.0,0.0,0.6838461756706238,0.22615385055541992,9.107179641723633,0.0,0.0,0.0,0.0,0.0,0.0,0.0,0.0,0.0
1646350917.6334767,10216,1646350917,633139041,,0.0,0.0,0.0,0.0,0.0,0.0,0.0,0.0,0.0,0.0,0.0,0.0,0.0,-0.042761147022247314,-0.190565288066864,-0.057049788534641266,0.0,0.0,0.0,0.0,0.0,0.0,0.0,0.0,0.0,1.0069230794906616,0.26384615898132324,9.085640907287598,0.0,0.0,0.0,0.0,0.0,0.0,0.0,0.0,0.0
1646350917.6355681,10217,1646350917,635295696,,0.0,0.0,0.0,0.0,0.0,0.0,0.0,0.0,0.0,0.0,0.0,0.0,0.0,-0.013999010436236858,-0.1586073786020279,-0.018700269982218742,0.0,0.0,0.0,0.0,0.0,0.0,0.0,0.0,0.0,0.9907692670822144,0.39666667580604553,9.05512809753418,0.0,0.0,0.0,0.0,0.0,0.0,0.0,0.0,0.0
1646350917.637851,10218,1646350917,637497909,,0.0,0.0,0.0,0.0,0.0,0.0,0.0,0.0,0.0,0.0,0.0,0.0,0.0,0.0009146920638158917,-0.14369367063045502,-0.04107082262635231,0.0,0.0,0.0,0.0,0.0,0.0,0.0,0.0,0.0,0.9279487133026123,0.18307693302631378,9.01025676727295,0.0,0.0,0.0,0.0,0.0,0.0,0.0,0.0,0.0
1646350917.6399913,10219,1646350917,639697437,,0.0,0.0,0.0,0.0,0.0,0.0,0.0,0.0,0.0,0.0,0.0,0.0,0.0,-0.00654215831309557,-0.10853992402553558,-0.05278873071074486,0.0,0.0,0.0,0.0,0.0,0.0,0.0,0.0,0.0,0.823846161365509,0.42538464069366455,9.520000457763672,0.0,0.0,0.0,0.0,0.0,0.0,0.0,0.0,0.0
1646350917.6422436,10220,1646350917,641875235,,0.0,0.0,0.0,0.0,0.0,0.0,0.0,0.0,0.0,0.0,0.0,0.0,0.0,0.022219980135560036,-0.11493151634931564,-0.06344137340784073,0.0,0.0,0.0,0.0,0.0,0.0,0.0,0.0,0.0,1.0392308235168457,-0.05384615436196327,9.317179679870605,0.0,0.0,0.0,0.0,0.0,0.0,0.0,0.0,0.0
1646350917.6443965,10221,1646350917,644127736,,0.0,0.0,0.0,0.0,0.0,0.0,0.0,0.0,0.0,0.0,0.0,0.0,0.0,0.03287262097001076,-0.10427886992692947,-0.04959293454885483,0.0,0.0,0.0,0.0,0.0,0.0,0.0,0.0,0.0,0.5833333134651184,-0.07897436618804932,9.315383911132812,0.0,0.0,0.0,0.0,0.0,0.0,0.0,0.0,0.0
1646350917.6466758,10222,1646350917,646305169,,0.0,0.0,0.0,0.0,0.0,0.0,0.0,0.0,0.0,0.0,0.0,0.0,0.0,0.033937886357307434,-0.06486409902572632,-0.061310846358537674,0.0,0.0,0.0,0.0,0.0,0.0,0.0,0.0,0.0,1.066153883934021,0.09871795028448105,9.593589782714844,0.0,0.0,0.0,0.0,0.0,0.0,0.0,0.0,0.0
1646350917.6487901,10223,1646350917,648481968,,0.0,0.0,0.0,0.0,0.0,0.0,0.0,0.0,0.0,0.0,0.0,0.0,0.0,0.03180735930800438,-0.07871252298355103,-0.04533188045024872,0.0,0.0,0.0,0.0,0.0,0.0,0.0,0.0,0.0,1.0517948865890503,-0.1382051259279251,9.433846473693848,0.0,0.0,0.0,0.0,0.0,0.0,0.0,0.0,0.0
1646350917.6509497,10224,1646350917,650781882,,0.0,0.0,0.0,0.0,0.0,0.0,0.0,0.0,0.0,0.0,0.0,0.0,0.0,0.04246000573039055,-0.07338621467351913,-0.07089822739362717,0.0,0.0,0.0,0.0,0.0,0.0,0.0,0.0,0.0,1.035641074180603,0.18307693302631378,9.796409606933594,0.0,0.0,0.0,0.0,0.0,0.0,0.0,0.0,0.0
1646350917.653287,10225,1646350917,652964416,,0.0,0.0,0.0,0.0,0.0,0.0,0.0,0.0,0.0,0.0,0.0,0.0,0.0,0.022219980135560036,-0.06699462234973907,-0.04426661506295204,0.0,0.0,0.0,0.0,0.0,0.0,0.0,0.0,0.0,1.0733333826065063,-0.4505128264427185,9.302820205688477,0.0,0.0,0.0,0.0,0.0,0.0,0.0,0.0,0.0
1646350917.6556196,10226,1646350917,655180333,,0.0,0.0,0.0,0.0,0.0,0.0,0.0,0.0,0.0,0.0,0.0,0.0,0.0,0.04672106355428696,-0.06166830286383629,-0.057049788534641266,0.0,0.0,0.0,0.0,0.0,0.0,0.0,0.0,0.0,0.9710256457328796,-0.38769233226776123,9.315383911132812,0.0,0.0,0.0,0.0,0.0,0.0,0.0,0.0,0.0
1646350917.657769,10227,1646350917,657348019,,0.0,0.0,0.0,0.0,0.0,0.0,0.0,0.0,0.0,0.0,0.0,0.0,0.0,0.050982117652893066,-0.07445148378610611,-0.04746240749955177,0.0,0.0,0.0,0.0,0.0,0.0,0.0,0.0,0.0,1.1343590021133423,-0.20461538434028625,9.50743579864502,0.0,0.0,0.0,0.0,0.0,0.0,0.0,0.0,0.0
1646350917.6599321,10228,1646350917,659513855,,0.0,0.0,0.0,0.0,0.0,0.0,0.0,0.0,0.0,0.0,0.0,0.0,0.0,0.026481037959456444,-0.08190831542015076,-0.05278873071074486,0.0,0.0,0.0,0.0,0.0,0.0,0.0,0.0,0.0,1.1720513105392456,-0.3141025900840759,9.324358940124512,0.0,0.0,0.0,0.0,0.0,0.0,0.0,0.0,0.0
1646350917.6620884,10229,1646350917,661687954,,0.0,0.0,0.0,0.0,0.0,0.0,0.0,0.0,0.0,0.0,0.0,0.0,0.0,0.012632600963115692,-0.08829990029335022,-0.04107082262635231,0.0,0.0,0.0,0.0,0.0,0.0,0.0,0.0,0.0,1.292307734489441,0.15794873237609863,9.61153793334961,0.0,0.0,0.0,0.0,0.0,0.0,0.0,0.0,0.0
1646350917.664824,10230,1646350917,663853400,,0.0,0.0,0.0,0.0,0.0,0.0,0.0,0.0,0.0,0.0,0.0,0.0,0.0,0.010502072051167488,-0.07764726132154465,-0.029352914541959763,0.0,0.0,0.0,0.0,0.0,0.0,0.0,0.0,0.0,1.3371795415878296,-0.4594871997833252,9.344101905822754,0.0,0.0,0.0,0.0,0.0,0.0,0.0,0.0,0.0
1646350917.6664805,10231,1646350917,666054318,,0.0,0.0,0.0,0.0,0.0,0.0,0.0,0.0,0.0,0.0,0.0,0.0,0.0,-0.012933745980262756,-0.07338621467351913,-0.043201349675655365,0.0,0.0,0.0,0.0,0.0,0.0,0.0,0.0,0.0,0.942307710647583,0.30512821674346924,10.004615783691406,0.0,0.0,0.0,0.0,0.0,0.0,0.0,0.0,0.0
1646350917.6685443,10232,1646350917,668234506,,0.0,0.0,0.0,0.0,0.0,0.0,0.0,0.0,0.0,0.0,0.0,0.0,0.0,-0.01932533085346222,-0.07445148378610611,-0.031483445316553116,0.0,0.0,0.0,0.0,0.0,0.0,0.0,0.0,0.0,0.7951282262802124,0.11666666716337204,9.744359016418457,0.0,0.0,0.0,0.0,0.0,0.0,0.0,0.0,0.0
1646350917.6707475,10233,1646350917,670428340,,0.0,0.0,0.0,0.0,0.0,0.0,0.0,0.0,0.0,0.0,0.0,0.0,0.0,-0.050217997282743454,-0.07445148378610611,-0.021896062418818474,0.0,0.0,0.0,0.0,0.0,0.0,0.0,0.0,0.0,0.746666669845581,-0.028717949986457825,9.353076934814453,0.0,0.0,0.0,0.0,0.0,0.0,0.0,0.0,0.0
1646350917.6729429,10234,1646350917,672728086,,0.0,0.0,0.0,0.0,0.0,0.0,0.0,0.0,0.0,0.0,0.0,0.0,0.0,-0.021455859765410423,-0.08084305375814438,-0.03787503018975258,0.0,0.0,0.0,0.0,0.0,0.0,0.0,0.0,0.0,0.9441025853157043,0.21897436678409576,9.435641288757324,0.0,0.0,0.0,0.0,0.0,0.0,0.0,0.0,0.0
1646350917.675395,10235,1646350917,675028377,,0.0,0.0,0.0,0.0,0.0,0.0,0.0,0.0,0.0,0.0,0.0,0.0,0.0,-0.045956939458847046,-0.07658199220895767,-0.0016560404328629375,0.0,0.0,0.0,0.0,0.0,0.0,0.0,0.0,0.0,1.076923131942749,0.030512820929288864,9.053333282470703,0.0,0.0,0.0,0.0,0.0,0.0,0.0,0.0,0.0
1646350917.677538,10236,1646350917,677177121,,0.0,0.0,0.0,0.0,0.0,0.0,0.0,0.0,0.0,0.0,0.0,0.0,0.0,-0.04489167407155037,-0.09149569272994995,-0.061310846358537674,0.0,0.0,0.0,0.0,0.0,0.0,0.0,0.0,0.0,1.0302563905715942,0.5348718166351318,9.493077278137207,0.0,0.0,0.0,0.0,0.0,0.0,0.0,0.0,0.0
1646350917.6801093,10237,1646350917,679351234,,0.0,0.0,0.0,0.0,0.0,0.0,0.0,0.0,0.0,0.0,0.0,0.0,0.0,-0.04063061624765396,-0.06379882991313934,-0.020830798894166946,0.0,0.0,0.0,0.0,0.0,0.0,0.0,0.0,0.0,1.1505128145217896,-0.21000000834465027,8.911539077758789,0.0,0.0,0.0,0.0,0.0,0.0,0.0,0.0,0.0
1646350917.681811,10238,1646350917,681512324,,0.0,0.0,0.0,0.0,0.0,0.0,0.0,0.0,0.0,0.0,0.0,0.0,0.0,-0.013999010436236858,-0.05847251042723656,-0.0005907765007577837,0.0,0.0,0.0,0.0,0.0,0.0,0.0,0.0,0.0,0.7664102911949158,0.2889743745326996,9.631281852722168,0.0,0.0,0.0,0.0,0.0,0.0,0.0,0.0,0.0
1646350917.6841419,10239,1646350917,683816886,,0.0,0.0,0.0,0.0,0.0,0.0,0.0,0.0,0.0,0.0,0.0,0.0,0.0,-0.010803216136991978,-0.07871252298355103,-0.0101781552657485,0.0,0.0,0.0,0.0,0.0,0.0,0.0,0.0,0.0,0.7269231081008911,0.07717949151992798,9.205897331237793,0.0,0.0,0.0,0.0,0.0,0.0,0.0,0.0,0.0
1646350917.6864786,10240,1646350917,686127684,,0.0,0.0,0.0,0.0,0.0,0.0,0.0,0.0,0.0,0.0,0.0,0.0,0.0,-0.013999010436236858,-0.06166830286383629,0.0036702812649309635,0.0,0.0,0.0,0.0,0.0,0.0,0.0,0.0,0.0,0.5007692575454712,0.16871795058250427,9.218461990356445,0.0,0.0,0.0,0.0,0.0,0.0,0.0,0.0,0.0
1646350917.688731,10241,1646350917,688356263,,0.0,0.0,0.0,0.0,0.0,0.0,0.0,0.0,0.0,0.0,0.0,0.0,0.0,0.015828393399715424,-0.05421144887804985,-0.013373949564993382,0.0,0.0,0.0,0.0,0.0,0.0,0.0,0.0,0.0,0.6461538672447205,0.49000000953674316,9.494871139526367,0.0,0.0,0.0,0.0,0.0,0.0,0.0,0.0,0.0
1646350917.6910026,10242,1646350917,690602121,,0.0,0.0,0.0,0.0,0.0,0.0,0.0,0.0,0.0,0.0,0.0,0.0,0.0,0.017958922311663628,-0.0424935407936573,0.0058008101768791676,0.0,0.0,0.0,0.0,0.0,0.0,0.0,0.0,0.0,0.6569231152534485,-0.01794871874153614,8.881025314331055,0.0,0.0,0.0,0.0,0.0,0.0,0.0,0.0,0.0
1646350917.69312,10243,1646350917,692845462,,0.0,0.0,0.0,0.0,0.0,0.0,0.0,0.0,0.0,0.0,0.0,0.0,0.0,0.015828393399715424,-0.045689333230257034,-0.011243419721722603,0.0,0.0,0.0,0.0,0.0,0.0,0.0,0.0,0.0,0.6694872379302979,0.4558974504470825,9.55589771270752,0.0,0.0,0.0,0.0,0.0,0.0,0.0,0.0,0.0
1646350917.695372,10244,1646350917,695058707,,0.0,0.0,0.0,0.0,0.0,0.0,0.0,0.0,0.0,0.0,0.0,0.0,0.0,0.022219980135560036,-0.03716721758246422,-0.0101781552657485,0.0,0.0,0.0,0.0,0.0,0.0,0.0,0.0,0.0,0.19384616613388062,0.003589743748307228,9.311795234680176,0.0,0.0,0.0,0.0,0.0,0.0,0.0,0.0,0.0
1646350917.6976542,10245,1646350917,697263126,,0.0,0.0,0.0,0.0,0.0,0.0,0.0,0.0,0.0,0.0,0.0,0.0,0.0,0.004110485315322876,-0.045689333230257034,-0.03041817992925644,0.0,0.0,0.0,0.0,0.0,0.0,0.0,0.0,0.0,0.5312820672988892,0.31051284074783325,9.455384254455566,0.0,0.0,0.0,0.0,0.0,0.0,0.0,0.0,0.0
1646350917.6998389,10246,1646350917,699538064,,0.0,0.0,0.0,0.0,0.0,0.0,0.0,0.0,0.0,0.0,0.0,0.0,0.0,0.02115471661090851,-0.04462406784296036,-0.009112890809774399,0.0,0.0,0.0,0.0,0.0,0.0,0.0,0.0,0.0,0.31948718428611755,0.28717949986457825,9.801794052124023,0.0,0.0,0.0,0.0,0.0,0.0,0.0,0.0,0.0
1646350917.70206,10247,1646350917,701776262,,0.0,0.0,0.0,0.0,0.0,0.0,0.0,0.0,0.0,0.0,0.0,0.0,0.0,0.0009146920638158917,-0.041428275406360626,0.00686607463285327,0.0,0.0,0.0,0.0,0.0,0.0,0.0,0.0,0.0,0.7951282262802124,0.4451282024383545,9.50205135345459,0.0,0.0,0.0,0.0,0.0,0.0,0.0,0.0,0.0
1646350917.704342,10248,1646350917,703960513,,0.0,0.0,0.0,0.0,0.0,0.0,0.0,0.0,0.0,0.0,0.0,0.0,0.0,0.01689365692436695,-0.03716721758246422,-0.021896062418818474,0.0,0.0,0.0,0.0,0.0,0.0,0.0,0.0,0.0,0.7951282262802124,0.10948718339204788,9.214871406555176,0.0,0.0,0.0,0.0,0.0,0.0,0.0,0.0,0.0
1646350917.7073915,10249,1646350917,706133134,,0.0,0.0,0.0,0.0,0.0,0.0,0.0,0.0,0.0,0.0,0.0,0.0,0.0,-0.005476894788444042,-0.048885125666856766,0.0047355457209050655,0.0,0.0,0.0,0.0,0.0,0.0,0.0,0.0,0.0,0.5671795010566711,-0.16692309081554413,9.471538543701172,0.0,0.0,0.0,0.0,0.0,0.0,0.0,0.0,0.0
1646350917.7085495,10250,1646350917,708309096,,0.0,0.0,0.0,0.0,0.0,0.0,0.0,0.0,0.0,0.0,0.0,0.0,0.0,0.01689365692436695,-0.02225351706147194,-0.03254871070384979,0.0,0.0,0.0,0.0,0.0,0.0,0.0,0.0,0.0,0.5994871854782104,0.3069230914115906,10.027949333190918,0.0,0.0,0.0,0.0,0.0,0.0,0.0,0.0,0.0
1646350917.7111542,10251,1646350917,710514274,,0.0,0.0,0.0,0.0,0.0,0.0,0.0,0.0,0.0,0.0,0.0,0.0,0.0,-0.007607422769069672,-0.026514576748013496,0.008996603079140186,0.0,0.0,0.0,0.0,0.0,0.0,0.0,0.0,0.0,0.6443589925765991,-0.12743589282035828,9.64025592803955,0.0,0.0,0.0,0.0,0.0,0.0,0.0,0.0,0.0
1646350917.712951,10252,1646350917,712670572,,0.0,0.0,0.0,0.0,0.0,0.0,0.0,0.0,0.0,0.0,0.0,0.0,0.0,0.03287262097001076,-0.016927195712924004,-0.008047626353800297,0.0,0.0,0.0,0.0,0.0,0.0,0.0,0.0,0.0,0.6658974885940552,0.45769232511520386,9.916666030883789,0.0,0.0,0.0,0.0,0.0,0.0,0.0,0.0,0.0
1646350917.7157528,10253,1646350917,715009168,,0.0,0.0,0.0,0.0,0.0,0.0,0.0,0.0,0.0,0.0,0.0,0.0,0.0,0.010502072051167488,-0.030775634571909904,-0.021896062418818474,0.0,0.0,0.0,0.0,0.0,0.0,0.0,0.0,0.0,0.6641026139259338,-0.14897435903549194,9.568461418151855,0.0,0.0,0.0,0.0,0.0,0.0,0.0,0.0,0.0
1646350917.7175171,10254,1646350917,717185123,,0.0,0.0,0.0,0.0,0.0,0.0,0.0,0.0,0.0,0.0,0.0,0.0,0.0,-0.008672687225043774,-0.016927195712924004,-0.012308684177696705,0.0,0.0,0.0,0.0,0.0,0.0,0.0,0.0,0.0,0.3410256505012512,-0.22615385055541992,9.668973922729492,0.0,0.0,0.0,0.0,0.0,0.0,0.0,0.0,0.0
1646350917.719821,10255,1646350917,719427297,,0.0,0.0,0.0,0.0,0.0,0.0,0.0,0.0,0.0,0.0,0.0,0.0,0.0,0.006241013761609793,-0.038232482969760895,-0.008047626353800297,0.0,0.0,0.0,0.0,0.0,0.0,0.0,0.0,0.0,0.5833333134651184,0.2117948830127716,9.89512825012207,0.0,0.0,0.0,0.0,0.0,0.0,0.0,0.0,0.0
1646350917.722014,10256,1646350917,721652545,,0.0,0.0,0.0,0.0,0.0,0.0,0.0,0.0,0.0,0.0,0.0,0.0,0.0,-0.008672687225043774,-0.019057724624872208,-0.0005907765007577837,0.0,0.0,0.0,0.0,0.0,0.0,0.0,0.0,0.0,0.4415384829044342,-0.15794873237609863,9.801794052124023,0.0,0.0,0.0,0.0,0.0,0.0,0.0,0.0,0.0
1646350917.7242427,10257,1646350917,723833098,,0.0,0.0,0.0,0.0,0.0,0.0,0.0,0.0,0.0,0.0,0.0,0.0,0.0,-0.02252112329006195,-0.013731402345001698,-0.031483445316553116,0.0,0.0,0.0,0.0,0.0,0.0,0.0,0.0,0.0,0.34282052516937256,0.1741025745868683,9.931025505065918,0.0,0.0,0.0,0.0,0.0,0.0,0.0,0.0,0.0
1646350917.7263038,10258,1646350917,726001888,,0.0,0.0,0.0,0.0,0.0,0.0,0.0,0.0,0.0,0.0,0.0,0.0,0.0,-0.00015057262498885393,-0.016927195712924004,-0.005917098838835955,0.0,0.0,0.0,0.0,0.0,0.0,0.0,0.0,0.0,0.6874359250068665,-0.03589743748307228,9.873589515686035,0.0,0.0,0.0,0.0,0.0,0.0,0.0,0.0,0.0
1646350917.7284894,10259,1646350917,728154377,,0.0,0.0,0.0,0.0,0.0,0.0,0.0,0.0,0.0,0.0,0.0,0.0,0.0,-0.03317376971244812,0.010769677348434925,0.0036702812649309635,0.0,0.0,0.0,0.0,0.0,0.0,0.0,0.0,0.0,0.7071795463562012,0.3356410562992096,10.09794807434082,0.0,0.0,0.0,0.0,0.0,0.0,0.0,0.0,0.0
1646350917.7306817,10260,1646350917,730355752,,0.0,0.0,0.0,0.0,0.0,0.0,0.0,0.0,0.0,0.0,0.0,0.0,0.0,-0.02678218111395836,0.003312827320769429,-0.0101781552657485,0.0,0.0,0.0,0.0,0.0,0.0,0.0,0.0,0.0,0.8220512866973877,-0.1058974415063858,9.848461151123047,0.0,0.0,0.0,0.0,0.0,0.0,0.0,0.0,0.0
1646350917.7327857,10261,1646350917,732555075,,0.0,0.0,0.0,0.0,0.0,0.0,0.0,0.0,0.0,0.0,0.0,0.0,0.0,-0.023586388677358627,0.007573884446173906,-0.0027213047724217176,0.0,0.0,0.0,0.0,0.0,0.0,0.0,0.0,0.0,0.6300000548362732,0.4451282024383545,10.11230754852295,0.0,0.0,0.0,0.0,0.0,0.0,0.0,0.0,0.0
1646350917.735136,10262,1646350917,734741175,,0.0,0.0,0.0,0.0,0.0,0.0,0.0,0.0,0.0,0.0,0.0,0.0,0.0,-0.012933745980262756,-0.0020134944934397936,-0.012308684177696705,0.0,0.0,0.0,0.0,0.0,0.0,0.0,0.0,0.0,0.6658974885940552,0.0825641080737114,9.913077354431152,0.0,0.0,0.0,0.0,0.0,0.0,0.0,0.0,0.0
1646350917.7373197,10263,1646350917,736947895,,0.0,0.0,0.0,0.0,0.0,0.0,0.0,0.0,0.0,0.0,0.0,0.0,0.0,0.001979956403374672,-0.02225351706147194,-0.0016560404328629375,0.0,0.0,0.0,0.0,0.0,0.0,0.0,0.0,0.0,0.818461537361145,0.30153846740722656,9.773077011108398,0.0,0.0,0.0,0.0,0.0,0.0,0.0,0.0,0.0
1646350917.7400267,10264,1646350917,739177027,,0.0,0.0,0.0,0.0,0.0,0.0,0.0,0.0,0.0,0.0,0.0,0.0,0.0,-0.017194801941514015,0.007573884446173906,-0.004851834382861853,0.0,0.0,0.0,0.0,0.0,0.0,0.0,0.0,0.0,0.7000000476837158,0.43435898423194885,10.04769229888916,0.0,0.0,0.0,0.0,0.0,0.0,0.0,0.0,0.0
1646350917.7416558,10265,1646350917,741340279,,0.0,0.0,0.0,0.0,0.0,0.0,0.0,0.0,0.0,0.0,0.0,0.0,0.0,-0.003346365410834551,-0.011600873433053493,-0.014439214020967484,0.0,0.0,0.0,0.0,0.0,0.0,0.0,0.0,0.0,0.6371794939041138,-0.13461539149284363,9.548717498779297,0.0,0.0,0.0,0.0,0.0,0.0,0.0,0.0,0.0
1646350917.7438812,10266,1646350917,743562555,,0.0,0.0,0.0,0.0,0.0,0.0,0.0,0.0,0.0,0.0,0.0,0.0,0.0,0.004110485315322876,-0.008405081927776337,-0.017635004594922066,0.0,0.0,0.0,0.0,0.0,0.0,0.0,0.0,0.0,0.6569231152534485,0.28179487586021423,10.054871559143066,0.0,0.0,0.0,0.0,0.0,0.0,0.0,0.0,0.0
1646350917.7460847,10267,1646350917,745737945,,0.0,0.0,0.0,0.0,0.0,0.0,0.0,0.0,0.0,0.0,0.0,0.0,0.0,-0.00654215831309557,-0.003078758716583252,0.008996603079140186,0.0,0.0,0.0,0.0,0.0,0.0,0.0,0.0,0.0,0.5043590068817139,-0.14538460969924927,9.566666603088379,0.0,0.0,0.0,0.0,0.0,0.0,0.0,0.0,0.0
1646350917.7494464,10268,1646350917,747958944,,0.0,0.0,0.0,0.0,0.0,0.0,0.0,0.0,0.0,0.0,0.0,0.0,0.0,-0.002281100954860449,0.011834941804409027,0.00686607463285327,0.0,0.0,0.0,0.0,0.0,0.0,0.0,0.0,0.0,0.5653846263885498,0.23333333432674408,10.139230728149414,0.0,0.0,0.0,0.0,0.0,0.0,0.0,0.0,0.0
1646350917.7503839,10269,1646350917,750140317,,0.0,0.0,0.0,0.0,0.0,0.0,0.0,0.0,0.0,0.0,0.0,0.0,0.0,-0.008672687225043774,-0.003078758716583252,0.010061867535114288,0.0,0.0,0.0,0.0,0.0,0.0,0.0,0.0,0.0,0.8041025996208191,0.10230769217014313,9.916666030883789,0.0,0.0,0.0,0.0,0.0,0.0,0.0,0.0,0.0
1646350917.7525141,10270,1646350917,752308092,,0.0,0.0,0.0,0.0,0.0,0.0,0.0,0.0,0.0,0.0,0.0,0.0,0.0,-0.010803216136991978,-0.005209287628531456,-0.004851834382861853,0.0,0.0,0.0,0.0,0.0,0.0,0.0,0.0,0.0,0.7053846716880798,0.19923077523708344,9.878974914550781,0.0,0.0,0.0,0.0,0.0,0.0,0.0,0.0,0.0
1646350917.7547133,10271,1646350917,754469332,,0.0,0.0,0.0,0.0,0.0,0.0,0.0,0.0,0.0,0.0,0.0,0.0,0.0,0.01156733650714159,-0.008405081927776337,0.012192396447062492,0.0,0.0,0.0,0.0,0.0,0.0,0.0,0.0,0.0,0.6479487419128418,-0.06461538374423981,9.50743579864502,0.0,0.0,0.0,0.0,0.0,0.0,0.0,0.0,0.0
1646350917.7567048,10272,1646350917,756590421,,0.0,0.0,0.0,0.0,0.0,0.0,0.0,0.0,0.0,0.0,0.0,0.0,0.0,0.0030452206265181303,-0.03290615975856781,0.0047355457209050655,0.0,0.0,0.0,0.0,0.0,0.0,0.0,0.0,0.0,0.8328205347061157,0.3033333420753479,9.920256614685059,0.0,0.0,0.0,0.0,0.0,0.0,0.0,0.0,0.0
1646350917.7588909,10273,1646350917,758747576,,0.0,0.0,0.0,0.0,0.0,0.0,0.0,0.0,0.0,0.0,0.0,0.0,0.0,-0.013999010436236858,-0.009470346383750439,0.0047355457209050655,0.0,0.0,0.0,0.0,0.0,0.0,0.0,0.0,0.0,0.7143589854240417,0.28717949986457825,10.333076477050781,0.0,0.0,0.0,0.0,0.0,0.0,0.0,0.0,0.0
1646350917.7611094,10274,1646350917,760903794,,0.0,0.0,0.0,0.0,0.0,0.0,0.0,0.0,0.0,0.0,0.0,0.0,0.0,-0.017194801941514015,-0.007339817471802235,0.015388189814984798,0.0,0.0,0.0,0.0,0.0,0.0,0.0,0.0,0.0,0.6048718094825745,-0.49897435307502747,9.317179679870605,0.0,0.0,0.0,0.0,0.0,0.0,0.0,0.0,0.0
1646350917.7632763,10275,1646350917,763107967,,0.0,0.0,0.0,0.0,0.0,0.0,0.0,0.0,0.0,0.0,0.0,0.0,0.0,-0.016129538416862488,0.012900206260383129,0.0047355457209050655,0.0,0.0,0.0,0.0,0.0,0.0,0.0,0.0,0.0,0.6946154236793518,0.2800000011920929,9.498461723327637,0.0,0.0,0.0,0.0,0.0,0.0,0.0,0.0,0.0
1646350917.7653792,10276,1646350917,765216063,,0.0,0.0,0.0,0.0,0.0,0.0,0.0,0.0,0.0,0.0,0.0,0.0,0.0,-0.02252112329006195,0.011834941804409027,0.010061867535114288,0.0,0.0,0.0,0.0,0.0,0.0,0.0,0.0,0.0,0.8848718404769897,0.02153846248984337,9.730000495910645,0.0,0.0,0.0,0.0,0.0,0.0,0.0,0.0,0.0
1646350917.7674406,10277,1646350917,767325724,,0.0,0.0,0.0,0.0,0.0,0.0,0.0,0.0,0.0,0.0,0.0,0.0,0.0,0.01689365692436695,-0.013731402345001698,0.0047355457209050655,0.0,0.0,0.0,0.0,0.0,0.0,0.0,0.0,0.0,0.43435898423194885,0.05743589997291565,10.250513076782227,0.0,0.0,0.0,0.0,0.0,0.0,0.0,0.0,0.0
1646350917.7695582,10278,1646350917,769462670,,0.0,0.0,0.0,0.0,0.0,0.0,0.0,0.0,0.0,0.0,0.0,0.0,0.0,-0.021455859765410423,0.00224756239913404,0.013257660903036594,0.0,0.0,0.0,0.0,0.0,0.0,0.0,0.0,0.0,0.3069230914115906,-0.4792307913303375,9.656410217285156,0.0,0.0,0.0,0.0,0.0,0.0,0.0,0.0,0.0
1646350917.7719011,10279,1646350917,771662659,,0.0,0.0,0.0,0.0,0.0,0.0,0.0,0.0,0.0,0.0,0.0,0.0,0.0,-0.03743482753634453,0.00544335599988699,0.015388189814984798,0.0,0.0,0.0,0.0,0.0,0.0,0.0,0.0,0.0,0.7412821054458618,0.3087179660797119,10.049487113952637,0.0,0.0,0.0,0.0,0.0,0.0,0.0,0.0,0.0
1646350917.7740111,10280,1646350917,773812558,,0.0,0.0,0.0,0.0,0.0,0.0,0.0,0.0,0.0,0.0,0.0,0.0,0.0,-0.02571691758930683,-0.008405081927776337,-0.006982361897826195,0.0,0.0,0.0,0.0,0.0,0.0,0.0,0.0,0.0,0.5241025686264038,-0.18487180769443512,9.568461418151855,0.0,0.0,0.0,0.0,0.0,0.0,0.0,0.0,0.0
1646350917.7762306,10281,1646350917,776009825,,0.0,0.0,0.0,0.0,0.0,0.0,0.0,0.0,0.0,0.0,0.0,0.0,0.0,0.013697865419089794,0.00011703448399202898,0.008996603079140186,0.0,0.0,0.0,0.0,0.0,0.0,0.0,0.0,0.0,0.5797435641288757,0.2207692414522171,9.715641021728516,0.0,0.0,0.0,0.0,0.0,0.0,0.0,0.0,0.0
1646350917.7782989,10282,1646350917,778121287,,0.0,0.0,0.0,0.0,0.0,0.0,0.0,0.0,0.0,0.0,0.0,0.0,0.0,0.006241013761609793,0.007573884446173906,0.012192396447062492,0.0,0.0,0.0,0.0,0.0,0.0,0.0,0.0,0.0,0.4882051348686218,0.21000000834465027,9.704872131347656,0.0,0.0,0.0,0.0,0.0,0.0,0.0,0.0,0.0
1646350917.7804384,10283,1646350917,780289494,,0.0,0.0,0.0,0.0,0.0,0.0,0.0,0.0,0.0,0.0,0.0,0.0,0.0,-0.009737951681017876,-0.008405081927776337,0.012192396447062492,0.0,0.0,0.0,0.0,0.0,0.0,0.0,0.0,0.0,0.23512820899486542,-0.24230769276618958,9.545127868652344,0.0,0.0,0.0,0.0,0.0,0.0,0.0,0.0,0.0
1646350917.7826183,10284,1646350917,782397239,,0.0,0.0,0.0,0.0,0.0,0.0,0.0,0.0,0.0,0.0,0.0,0.0,0.0,-0.013999010436236858,0.008639149367809296,-0.006982361897826195,0.0,0.0,0.0,0.0,0.0,0.0,0.0,0.0,0.0,0.4864102602005005,0.17769230902194977,9.796409606933594,0.0,0.0,0.0,0.0,0.0,0.0,0.0,0.0,0.0
1646350917.784715,10285,1646350917,784550825,,0.0,0.0,0.0,0.0,0.0,0.0,0.0,0.0,0.0,0.0,0.0,0.0,0.0,-0.00015057262498885393,0.016095999628305435,0.024975569918751717,0.0,0.0,0.0,0.0,0.0,0.0,0.0,0.0,0.0,0.5223076939582825,-0.28358975052833557,9.428462028503418,0.0,0.0,0.0,0.0,0.0,0.0,0.0,0.0,0.0
1646350917.7868783,10286,1646350917,786698779,,0.0,0.0,0.0,0.0,0.0,0.0,0.0,0.0,0.0,0.0,0.0,0.0,0.0,-0.00654215831309557,0.00544335599988699,0.014322925359010696,0.0,0.0,0.0,0.0,0.0,0.0,0.0,0.0,0.0,0.6317949295043945,0.032307691872119904,9.922051429748535,0.0,0.0,0.0,0.0,0.0,0.0,0.0,0.0,0.0
1646350917.789391,10287,1646350917,788811239,,0.0,0.0,0.0,0.0,0.0,0.0,0.0,0.0,0.0,0.0,0.0,0.0,0.0,-0.013999010436236858,0.00544335599988699,-0.0016560404328629375,0.0,0.0,0.0,0.0,0.0,0.0,0.0,0.0,0.0,0.5923076868057251,-0.23333333432674408,9.527179718017578,0.0,0.0,0.0,0.0,0.0,0.0,0.0,0.0,0.0
1646350917.7910807,10288,1646350917,790921988,,0.0,0.0,0.0,0.0,0.0,0.0,0.0,0.0,0.0,0.0,0.0,0.0,0.0,0.008371543139219284,-0.009470346383750439,0.0015397525858134031,0.0,0.0,0.0,0.0,0.0,0.0,0.0,0.0,0.0,0.5923076868057251,0.07717949151992798,9.817949295043945,0.0,0.0,0.0,0.0,0.0,0.0,0.0,0.0,0.0
1646350917.7932007,10289,1646350917,793043490,,0.0,0.0,0.0,0.0,0.0,0.0,0.0,0.0,0.0,0.0,0.0,0.0,0.0,-0.00654215831309557,-0.015861930325627327,-0.021896062418818474,0.0,0.0,0.0,0.0,0.0,0.0,0.0,0.0,0.0,0.8023077249526978,-0.21000000834465027,9.573845863342285,0.0,0.0,0.0,0.0,0.0,0.0,0.0,0.0,0.0
1646350917.7954242,10290,1646350917,795152069,,0.0,0.0,0.0,0.0,0.0,0.0,0.0,0.0,0.0,0.0,0.0,0.0,0.0,-0.007607422769069672,0.00011703448399202898,-0.0101781552657485,0.0,0.0,0.0,0.0,0.0,0.0,0.0,0.0,0.0,0.5671795010566711,0.15256410837173462,9.785640716552734,0.0,0.0,0.0,0.0,0.0,0.0,0.0,0.0,0.0
1646350917.797481,10291,1646350917,797256025,,0.0,0.0,0.0,0.0,0.0,0.0,0.0,0.0,0.0,0.0,0.0,0.0,0.0,-0.002281100954860449,0.013965470716357231,-0.0027213047724217176,0.0,0.0,0.0,0.0,0.0,0.0,0.0,0.0,0.0,0.6138461828231812,-0.09692308306694031,9.73717975616455,0.0,0.0,0.0,0.0,0.0,0.0,0.0,0.0,0.0
1646350917.799493,10292,1646350917,799362202,,0.0,0.0,0.0,0.0,0.0,0.0,0.0,0.0,0.0,0.0,0.0,0.0,0.0,0.014763129875063896,-0.003078758716583252,-0.009112890809774399,0.0,0.0,0.0,0.0,0.0,0.0,0.0,0.0,0.0,0.7376923561096191,0.0735897421836853,9.588204383850098,0.0,0.0,0.0,0.0,0.0,0.0,0.0,0.0,0.0
1646350917.8018086,10293,1646350917,801565218,,0.0,0.0,0.0,0.0,0.0,0.0,0.0,0.0,0.0,0.0,0.0,0.0,0.0,-0.01506427489221096,0.004378091543912888,0.01964924857020378,0.0,0.0,0.0,0.0,0.0,0.0,0.0,0.0,0.0,0.6030769348144531,-0.05923077091574669,9.559487342834473,0.0,0.0,0.0,0.0,0.0,0.0,0.0,0.0,0.0
1646350917.8038862,10294,1646350917,803671292,,0.0,0.0,0.0,0.0,0.0,0.0,0.0,0.0,0.0,0.0,0.0,0.0,0.0,0.0009146920638158917,-0.02544931322336197,-0.015504478476941586,0.0,0.0,0.0,0.0,0.0,0.0,0.0,0.0,0.0,0.7000000476837158,0.18487180769443512,9.557692527770996,0.0,0.0,0.0,0.0,0.0,0.0,0.0,0.0,0.0
1646350917.8059244,10295,1646350917,805824119,,0.0,0.0,0.0,0.0,0.0,0.0,0.0,0.0,0.0,0.0,0.0,0.0,0.0,-0.00654215831309557,0.027813909575343132,0.00686607463285327,0.0,0.0,0.0,0.0,0.0,0.0,0.0,0.0,0.0,0.8220512866973877,-0.18307693302631378,9.593589782714844,0.0,0.0,0.0,0.0,0.0,0.0,0.0,0.0,0.0
1646350917.808179,10296,1646350917,807934223,,0.0,0.0,0.0,0.0,0.0,0.0,0.0,0.0,0.0,0.0,0.0,0.0,0.0,-0.003346365410834551,0.012900206260383129,0.0047355457209050655,0.0,0.0,0.0,0.0,0.0,0.0,0.0,0.0,0.0,0.5976923108100891,0.1561538577079773,9.814358711242676,0.0,0.0,0.0,0.0,0.0,0.0,0.0,0.0,0.0
1646350917.8102427,10297,1646350917,810097703,,0.0,0.0,0.0,0.0,0.0,0.0,0.0,0.0,0.0,0.0,0.0,0.0,0.0,-0.007607422769069672,0.015030735172331333,-0.018700269982218742,0.0,0.0,0.0,0.0,0.0,0.0,0.0,0.0,0.0,0.5258974432945251,0.06820512562990189,9.947179794311523,0.0,0.0,0.0,0.0,0.0,0.0,0.0,0.0,0.0
1646350917.8123574,10298,1646350917,812247587,,0.0,0.0,0.0,0.0,0.0,0.0,0.0,0.0,0.0,0.0,0.0,0.0,0.0,-0.0012158364988863468,0.007573884446173906,-0.006982361897826195,0.0,0.0,0.0,0.0,0.0,0.0,0.0,0.0,0.0,0.2800000011920929,-0.3141025900840759,9.523589134216309,0.0,0.0,0.0,0.0,0.0,0.0,0.0,0.0,0.0
1646350917.8146393,10299,1646350917,814443006,,0.0,0.0,0.0,0.0,0.0,0.0,0.0,0.0,0.0,0.0,0.0,0.0,0.0,-0.00654215831309557,0.019291793927550316,-0.0005907765007577837,0.0,0.0,0.0,0.0,0.0,0.0,0.0,0.0,0.0,0.4882051348686218,-0.046666666865348816,9.981282234191895,0.0,0.0,0.0,0.0,0.0,0.0,0.0,0.0,0.0
1646350917.8167324,10300,1646350917,816549491,,0.0,0.0,0.0,0.0,0.0,0.0,0.0,0.0,0.0,0.0,0.0,0.0,0.0,-0.01186848059296608,0.008639149367809296,-0.016569742932915688,0.0,0.0,0.0,0.0,0.0,0.0,0.0,0.0,0.0,0.6030769348144531,-0.4002564251422882,9.573845863342285,0.0,0.0,0.0,0.0,0.0,0.0,0.0,0.0,0.0
1646350917.8188348,10301,1646350917,818693267,,0.0,0.0,0.0,0.0,0.0,0.0,0.0,0.0,0.0,0.0,0.0,0.0,0.0,0.013697865419089794,0.001182297826744616,-0.008047626353800297,0.0,0.0,0.0,0.0,0.0,0.0,0.0,0.0,0.0,0.6030769348144531,0.17769230902194977,10.10153865814209,0.0,0.0,0.0,0.0,0.0,0.0,0.0,0.0,0.0
1646350917.8210144,10302,1646350917,820817357,,0.0,0.0,0.0,0.0,0.0,0.0,0.0,0.0,0.0,0.0,0.0,0.0,0.0,0.001979956403374672,0.020357057452201843,-0.008047626353800297,0.0,0.0,0.0,0.0,0.0,0.0,0.0,0.0,0.0,0.39666667580604553,-0.33743590116500854,9.399744033813477,0.0,0.0,0.0,0.0,0.0,0.0,0.0,0.0,0.0
1646350917.8232348,10303,1646350917,823016988,,0.0,0.0,0.0,0.0,0.0,0.0,0.0,0.0,0.0,0.0,0.0,0.0,0.0,-0.01186848059296608,0.019291793927550316,0.010061867535114288,0.0,0.0,0.0,0.0,0.0,0.0,0.0,0.0,0.0,0.5905128121376038,0.1238461583852768,10.130256652832031,0.0,0.0,0.0,0.0,0.0,0.0,0.0,0.0,0.0
1646350917.8253298,10304,1646350917,825123211,,0.0,0.0,0.0,0.0,0.0,0.0,0.0,0.0,0.0,0.0,0.0,0.0,0.0,0.012632600963115692,0.029944438487291336,-0.005917098838835955,0.0,0.0,0.0,0.0,0.0,0.0,0.0,0.0,0.0,0.40205129981040955,0.032307691872119904,9.887948036193848,0.0,0.0,0.0,0.0,0.0,0.0,0.0,0.0,0.0
1646350917.8274424,10305,1646350917,827261710,,0.0,0.0,0.0,0.0,0.0,0.0,0.0,0.0,0.0,0.0,0.0,0.0,0.0,0.009436807595193386,0.02142232283949852,0.0026050168089568615,0.0,0.0,0.0,0.0,0.0,0.0,0.0,0.0,0.0,0.6623077392578125,-0.06282051652669907,9.64025592803955,0.0,0.0,0.0,0.0,0.0,0.0,0.0,0.0,0.0
1646350917.8299787,10306,1646350917,829376400,,0.0,0.0,0.0,0.0,0.0,0.0,0.0,0.0,0.0,0.0,0.0,0.0,0.0,-0.007607422769069672,-0.004144023172557354,-0.02296132780611515,0.0,0.0,0.0,0.0,0.0,0.0,0.0,0.0,0.0,0.5276923179626465,-0.048461541533470154,9.807180404663086,0.0,0.0,0.0,0.0,0.0,0.0,0.0,0.0,0.0
1646350917.8316536,10307,1646350917,831550973,,0.0,0.0,0.0,0.0,0.0,0.0,0.0,0.0,0.0,0.0,0.0,0.0,0.0,0.010502072051167488,0.00224756239913404,-0.004851834382861853,0.0,0.0,0.0,0.0,0.0,0.0,0.0,0.0,0.0,0.6641026139259338,0.10230769217014313,9.787436485290527,0.0,0.0,0.0,0.0,0.0,0.0,0.0,0.0,0.0
1646350917.8339474,10308,1646350917,833737668,,0.0,0.0,0.0,0.0,0.0,0.0,0.0,0.0,0.0,0.0,0.0,0.0,0.0,0.004110485315322876,0.01822652854025364,-0.008047626353800297,0.0,0.0,0.0,0.0,0.0,0.0,0.0,0.0,0.0,0.4146153926849365,0.032307691872119904,9.990256309509277,0.0,0.0,0.0,0.0,0.0,0.0,0.0,0.0,0.0
1646350917.8359778,10309,1646350917,835821169,,0.0,0.0,0.0,0.0,0.0,0.0,0.0,0.0,0.0,0.0,0.0,0.0,0.0,0.001979956403374672,0.012900206260383129,-0.011243419721722603,0.0,0.0,0.0,0.0,0.0,0.0,0.0,0.0,0.0,0.37871795892715454,-0.25846153497695923,9.482307434082031,0.0,0.0,0.0,0.0,0.0,0.0,0.0,0.0,0.0
1646350917.8380575,10310,1646350917,837962424,,0.0,0.0,0.0,0.0,0.0,0.0,0.0,0.0,0.0,0.0,0.0,0.0,0.0,-0.010803216136991978,0.026748644188046455,0.0036702812649309635,0.0,0.0,0.0,0.0,0.0,0.0,0.0,0.0,0.0,0.42538464069366455,-0.02153846248984337,9.974102020263672,0.0,0.0,0.0,0.0,0.0,0.0,0.0,0.0,0.0
1646350917.8402348,10311,1646350917,840066701,,0.0,0.0,0.0,0.0,0.0,0.0,0.0,0.0,0.0,0.0,0.0,0.0,0.0,-0.021455859765410423,0.004378091543912888,0.0036702812649309635,0.0,0.0,0.0,0.0,0.0,0.0,0.0,0.0,0.0,0.6964102983474731,-0.23512820899486542,9.487691879272461,0.0,0.0,0.0,0.0,0.0,0.0,0.0,0.0,0.0
1646350917.8423553,10312,1646350917,842221646,,0.0,0.0,0.0,0.0,0.0,0.0,0.0,0.0,0.0,0.0,0.0,0.0,0.0,0.014763129875063896,0.00544335599988699,-0.011243419721722603,0.0,0.0,0.0,0.0,0.0,0.0,0.0,0.0,0.0,0.6156410574913025,0.3500000238418579,10.080000877380371,0.0,0.0,0.0,0.0,0.0,0.0,0.0,0.0,0.0
1646350917.8445878,10313,1646350917,844379855,,0.0,0.0,0.0,0.0,0.0,0.0,0.0,0.0,0.0,0.0,0.0,0.0,0.0,-0.00654215831309557,0.02461811527609825,-0.0037865692283958197,0.0,0.0,0.0,0.0,0.0,0.0,0.0,0.0,0.0,0.5941025614738464,-0.31948718428611755,9.430255889892578,0.0,0.0,0.0,0.0,0.0,0.0,0.0,0.0,0.0
1646350917.8468175,10314,1646350917,846618114,,0.0,0.0,0.0,0.0,0.0,0.0,0.0,0.0,0.0,0.0,0.0,0.0,0.0,0.006241013761609793,0.010769677348434925,-0.018700269982218742,0.0,0.0,0.0,0.0,0.0,0.0,0.0,0.0,0.0,0.44871795177459717,0.3356410562992096,9.966922760009766,0.0,0.0,0.0,0.0,0.0,0.0,0.0,0.0,0.0
1646350917.8490343,10315,1646350917,848763408,,0.0,0.0,0.0,0.0,0.0,0.0,0.0,0.0,0.0,0.0,0.0,0.0,0.0,-0.013999010436236858,0.023552851751446724,-0.021896062418818474,0.0,0.0,0.0,0.0,0.0,0.0,0.0,0.0,0.0,0.6102564334869385,-0.3069230914115906,9.755127906799316,0.0,0.0,0.0,0.0,0.0,0.0,0.0,0.0,0.0
1646350917.8512495,10316,1646350917,850954131,,0.0,0.0,0.0,0.0,0.0,0.0,0.0,0.0,0.0,0.0,0.0,0.0,0.0,-0.020390594378113747,0.025683380663394928,-0.004851834382861853,0.0,0.0,0.0,0.0,0.0,0.0,0.0,0.0,0.0,0.5492307543754578,0.16692309081554413,9.677948951721191,0.0,0.0,0.0,0.0,0.0,0.0,0.0,0.0,0.0
1646350917.8532975,10317,1646350917,853116501,,0.0,0.0,0.0,0.0,0.0,0.0,0.0,0.0,0.0,0.0,0.0,0.0,0.0,-0.023586388677358627,-0.006274553015828133,-0.0037865692283958197,0.0,0.0,0.0,0.0,0.0,0.0,0.0,0.0,0.0,0.4002564251422882,0.08794872462749481,9.8610258102417,0.0,0.0,0.0,0.0,0.0,0.0,0.0,0.0,0.0
1646350917.8555956,10318,1646350917,855279036,,0.0,0.0,0.0,0.0,0.0,0.0,0.0,0.0,0.0,0.0,0.0,0.0,0.0,-0.02571691758930683,0.00011703448399202898,-0.005917098838835955,0.0,0.0,0.0,0.0,0.0,0.0,0.0,0.0,0.0,0.42000001668930054,-0.2997435927391052,9.629487037658691,0.0,0.0,0.0,0.0,0.0,0.0,0.0,0.0,0.0
1646350917.8580549,10319,1646350917,857511407,,0.0,0.0,0.0,0.0,0.0,0.0,0.0,0.0,0.0,0.0,0.0,0.0,0.0,-0.023586388677358627,0.022487586364150047,-0.03041817992925644,0.0,0.0,0.0,0.0,0.0,0.0,0.0,0.0,0.0,0.5420513153076172,0.12743589282035828,10.006409645080566,0.0,0.0,0.0,0.0,0.0,0.0,0.0,0.0,0.0
1646350917.860086,10320,1646350917,859725929,,0.0,0.0,0.0,0.0,0.0,0.0,0.0,0.0,0.0,0.0,0.0,0.0,0.0,-0.02571691758930683,0.004378091543912888,-0.018700269982218742,0.0,0.0,0.0,0.0,0.0,0.0,0.0,0.0,0.0,0.35179489850997925,-0.26923078298568726,9.509230613708496,0.0,0.0,0.0,0.0,0.0,0.0,0.0,0.0,0.0
1646350917.8621914,10321,1646350917,861927859,,0.0,0.0,0.0,0.0,0.0,0.0,0.0,0.0,0.0,0.0,0.0,0.0,0.0,-0.042761147022247314,0.013965470716357231,-0.024026591330766678,0.0,0.0,0.0,0.0,0.0,0.0,0.0,0.0,0.0,0.5582051277160645,0.14897435903549194,9.932821273803711,0.0,0.0,0.0,0.0,0.0,0.0,0.0,0.0,0.0
1646350917.8642974,10322,1646350917,864089221,,0.0,0.0,0.0,0.0,0.0,0.0,0.0,0.0,0.0,0.0,0.0,0.0,0.0,-0.024651652202010155,0.016095999628305435,0.015388189814984798,0.0,0.0,0.0,0.0,0.0,0.0,0.0,0.0,0.0,0.44333335757255554,-0.2800000011920929,9.471538543701172,0.0,0.0,0.0,0.0,0.0,0.0,0.0,0.0,0.0
1646350917.8665588,10323,1646350917,866237315,,0.0,0.0,0.0,0.0,0.0,0.0,0.0,0.0,0.0,0.0,0.0,0.0,0.0,-0.013999010436236858,0.020357057452201843,-0.012308684177696705,0.0,0.0,0.0,0.0,0.0,0.0,0.0,0.0,0.0,0.7556410431861877,0.21717949211597443,9.756922721862793,0.0,0.0,0.0,0.0,0.0,0.0,0.0,0.0,0.0
1646350917.8694136,10324,1646350917,868429594,,0.0,0.0,0.0,0.0,0.0,0.0,0.0,0.0,0.0,0.0,0.0,0.0,0.0,-0.04489167407155037,0.015030735172331333,-0.006982361897826195,0.0,0.0,0.0,0.0,0.0,0.0,0.0,0.0,0.0,0.7376923561096191,-0.1794871836900711,9.45897388458252,0.0,0.0,0.0,0.0,0.0,0.0,0.0,0.0,0.0
1646350917.8708389,10325,1646350917,870622327,,0.0,0.0,0.0,0.0,0.0,0.0,0.0,0.0,0.0,0.0,0.0,0.0,0.0,0.01156733650714159,0.001182297826744616,0.018583983182907104,0.0,0.0,0.0,0.0,0.0,0.0,0.0,0.0,0.0,0.6946154236793518,0.15974359214305878,9.817949295043945,0.0,0.0,0.0,0.0,0.0,0.0,0.0,0.0,0.0
1646350917.872997,10326,1646350917,872767069,,0.0,0.0,0.0,0.0,0.0,0.0,0.0,0.0,0.0,0.0,0.0,0.0,0.0,-0.005476894788444042,0.00011703448399202898,-0.018700269982218742,0.0,0.0,0.0,0.0,0.0,0.0,0.0,0.0,0.0,0.8041025996208191,-0.2387179583311081,9.498461723327637,0.0,0.0,0.0,0.0,0.0,0.0,0.0,0.0,0.0
1646350917.8752148,10327,1646350917,874949511,,0.0,0.0,0.0,0.0,0.0,0.0,0.0,0.0,0.0,0.0,0.0,0.0,0.0,-0.024651652202010155,0.011834941804409027,0.0058008101768791676,0.0,0.0,0.0,0.0,0.0,0.0,0.0,0.0,0.0,0.7161538600921631,-0.01794871874153614,9.521795272827148,0.0,0.0,0.0,0.0,0.0,0.0,0.0,0.0,0.0
1646350917.877472,10328,1646350917,877175202,,0.0,0.0,0.0,0.0,0.0,0.0,0.0,0.0,0.0,0.0,0.0,0.0,0.0,-0.00441163033246994,0.009704413823783398,-0.009112890809774399,0.0,0.0,0.0,0.0,0.0,0.0,0.0,0.0,0.0,0.6210256814956665,0.13461539149284363,9.722820281982422,0.0,0.0,0.0,0.0,0.0,0.0,0.0,0.0,0.0
1646350917.8796751,10329,1646350917,879355422,,0.0,0.0,0.0,0.0,0.0,0.0,0.0,0.0,0.0,0.0,0.0,0.0,0.0,0.004110485315322876,0.013965470716357231,0.01112713199108839,0.0,0.0,0.0,0.0,0.0,0.0,0.0,0.0,0.0,0.7987179756164551,-0.14358974993228912,9.50205135345459,0.0,0.0,0.0,0.0,0.0,0.0,0.0,0.0,0.0
1646350917.881809,10330,1646350917,881510939,,0.0,0.0,0.0,0.0,0.0,0.0,0.0,0.0,0.0,0.0,0.0,0.0,0.0,0.001979956403374672,0.016095999628305435,-0.021896062418818474,0.0,0.0,0.0,0.0,0.0,0.0,0.0,0.0,0.0,0.6623077392578125,0.23512820899486542,9.789230346679688,0.0,0.0,0.0,0.0,0.0,0.0,0.0,0.0,0.0
1646350917.8840036,10331,1646350917,883741241,,0.0,0.0,0.0,0.0,0.0,0.0,0.0,0.0,0.0,0.0,0.0,0.0,0.0,0.01689365692436695,0.04272760823369026,0.017518719658255577,0.0,0.0,0.0,0.0,0.0,0.0,0.0,0.0,0.0,0.6892307996749878,-0.13641025125980377,9.566666603088379,0.0,0.0,0.0,0.0,0.0,0.0,0.0,0.0,0.0
1646350917.8862045,10332,1646350917,885905135,,0.0,0.0,0.0,0.0,0.0,0.0,0.0,0.0,0.0,0.0,0.0,0.0,0.0,-0.009737951681017876,0.0363360196352005,0.015388189814984798,0.0,0.0,0.0,0.0,0.0,0.0,0.0,0.0,0.0,0.6371794939041138,0.048461541533470154,9.981282234191895,0.0,0.0,0.0,0.0,0.0,0.0,0.0,0.0,0.0
1646350917.8882792,10333,1646350917,888074568,,0.0,0.0,0.0,0.0,0.0,0.0,0.0,0.0,0.0,0.0,0.0,0.0,0.0,0.01156733650714159,0.00224756239913404,-0.008047626353800297,0.0,0.0,0.0,0.0,0.0,0.0,0.0,0.0,0.0,0.5348718166351318,-0.15794873237609863,9.523589134216309,0.0,0.0,0.0,0.0,0.0,0.0,0.0,0.0,0.0
1646350917.8904605,10334,1646350917,890228782,,0.0,0.0,0.0,0.0,0.0,0.0,0.0,0.0,0.0,0.0,0.0,0.0,0.0,-0.009737951681017876,0.023552851751446724,0.013257660903036594,0.0,0.0,0.0,0.0,0.0,0.0,0.0,0.0,0.0,0.7556410431861877,0.00897435937076807,9.530769348144531,0.0,0.0,0.0,0.0,0.0,0.0,0.0,0.0,0.0
1646350917.8925762,10335,1646350917,892395400,,0.0,0.0,0.0,0.0,0.0,0.0,0.0,0.0,0.0,0.0,0.0,0.0,0.0,-0.00654215831309557,0.015030735172331333,-0.018700269982218742,0.0,0.0,0.0,0.0,0.0,0.0,0.0,0.0,0.0,0.7269231081008911,0.1238461583852768,9.832307815551758,0.0,0.0,0.0,0.0,0.0,0.0,0.0,0.0,0.0
1646350917.894797,10336,1646350917,894555494,,0.0,0.0,0.0,0.0,0.0,0.0,0.0,0.0,0.0,0.0,0.0,0.0,0.0,-0.024651652202010155,0.038466550409793854,-0.0016560404328629375,0.0,0.0,0.0,0.0,0.0,0.0,0.0,0.0,0.0,0.865128219127655,0.10948718339204788,9.740769386291504,0.0,0.0,0.0,0.0,0.0,0.0,0.0,0.0,0.0
1646350917.897111,10337,1646350917,896734802,,0.0,0.0,0.0,0.0,0.0,0.0,0.0,0.0,0.0,0.0,0.0,0.0,0.0,-0.03743482753634453,0.06616342067718506,-0.0016560404328629375,0.0,0.0,0.0,0.0,0.0,0.0,0.0,0.0,0.0,0.7143589854240417,0.10948718339204788,9.782051086425781,0.0,0.0,0.0,0.0,0.0,0.0,0.0,0.0,0.0
1646350917.8992128,10338,1646350917,898942709,,0.0,0.0,0.0,0.0,0.0,0.0,0.0,0.0,0.0,0.0,0.0,0.0,0.0,-0.053413789719343185,0.051249727606773376,-0.020830798894166946,0.0,0.0,0.0,0.0,0.0,0.0,0.0,0.0,0.0,0.5492307543754578,-0.15076923370361328,9.503846168518066,0.0,0.0,0.0,0.0,0.0,0.0,0.0,0.0,0.0
1646350917.901425,10339,1646350917,901186999,,0.0,0.0,0.0,0.0,0.0,0.0,0.0,0.0,0.0,0.0,0.0,0.0,0.0,-0.0715232864022255,0.051249727606773376,-0.0005907765007577837,0.0,0.0,0.0,0.0,0.0,0.0,0.0,0.0,0.0,0.6300000548362732,0.2656410336494446,9.975897789001465,0.0,0.0,0.0,0.0,0.0,0.0,0.0,0.0,0.0
1646350917.9036567,10340,1646350917,903381254,,0.0,0.0,0.0,0.0,0.0,0.0,0.0,0.0,0.0,0.0,0.0,0.0,0.0,-0.0853717252612114,0.08001185953617096,0.000474488188046962,0.0,0.0,0.0,0.0,0.0,0.0,0.0,0.0,0.0,0.9279487133026123,-0.19923077523708344,9.493077278137207,0.0,0.0,0.0,0.0,0.0,0.0,0.0,0.0,0.0
1646350917.9058757,10341,1646350917,905521405,,0.0,0.0,0.0,0.0,0.0,0.0,0.0,0.0,0.0,0.0,0.0,0.0,0.0,-0.07471907883882523,0.06935922056436539,-0.0037865692283958197,0.0,0.0,0.0,0.0,0.0,0.0,0.0,0.0,0.0,0.8615384697914124,0.2656410336494446,9.435641288757324,0.0,0.0,0.0,0.0,0.0,0.0,0.0,0.0,0.0
1646350917.9080164,10342,1646350917,907663149,,0.0,0.0,0.0,0.0,0.0,0.0,0.0,0.0,0.0,0.0,0.0,0.0,0.0,-0.11519912630319595,0.07894659787416458,0.000474488188046962,0.0,0.0,0.0,0.0,0.0,0.0,0.0,0.0,0.0,0.9853846430778503,-0.003589743748307228,9.498461723327637,0.0,0.0,0.0,0.0,0.0,0.0,0.0,0.0,0.0
1646350917.9106815,10343,1646350917,909822443,,0.0,0.0,0.0,0.0,0.0,0.0,0.0,0.0,0.0,0.0,0.0,0.0,0.0,-0.09176331013441086,0.06722868978977203,-0.005917098838835955,0.0,0.0,0.0,0.0,0.0,0.0,0.0,0.0,0.0,0.5725641250610352,-0.0825641080737114,9.168205261230469,0.0,0.0,0.0,0.0,0.0,0.0,0.0,0.0,0.0
1646350917.912197,10344,1646350917,911967298,,0.0,0.0,0.0,0.0,0.0,0.0,0.0,0.0,0.0,0.0,0.0,0.0,0.0,-0.08856751769781113,0.09386029839515686,-0.0016560404328629375,0.0,0.0,0.0,0.0,0.0,0.0,0.0,0.0,0.0,0.5725641250610352,0.21897436678409576,9.584615707397461,0.0,0.0,0.0,0.0,0.0,0.0,0.0,0.0,0.0
1646350917.914283,10345,1646350917,914117515,,0.0,0.0,0.0,0.0,0.0,0.0,0.0,0.0,0.0,0.0,0.0,0.0,0.0,-0.07898014038801193,0.09705609083175659,-0.011243419721722603,0.0,0.0,0.0,0.0,0.0,0.0,0.0,0.0,0.0,0.8794872164726257,0.1148717999458313,9.309999465942383,0.0,0.0,0.0,0.0,0.0,0.0,0.0,0.0,0.0
1646350917.916491,10346,1646350917,916288148,,0.0,0.0,0.0,0.0,0.0,0.0,0.0,0.0,0.0,0.0,0.0,0.0,0.0,-0.05447905510663986,0.07468553632497787,-0.004851834382861853,0.0,0.0,0.0,0.0,0.0,0.0,0.0,0.0,0.0,0.9279487133026123,0.34641027450561523,9.451794624328613,0.0,0.0,0.0,0.0,0.0,0.0,0.0,0.0,0.0
1646350917.9185853,10347,1646350917,918433025,,0.0,0.0,0.0,0.0,0.0,0.0,0.0,0.0,0.0,0.0,0.0,0.0,0.0,-0.05128326267004013,0.08533818274736404,0.012192396447062492,0.0,0.0,0.0,0.0,0.0,0.0,0.0,0.0,0.0,0.967435896396637,0.09871795028448105,9.211281776428223,0.0,0.0,0.0,0.0,0.0,0.0,0.0,0.0,0.0
1646350917.9208455,10348,1646350917,920592494,,0.0,0.0,0.0,0.0,0.0,0.0,0.0,0.0,0.0,0.0,0.0,0.0,0.0,-0.016129538416862488,0.10025188326835632,-0.02296132780611515,0.0,0.0,0.0,0.0,0.0,0.0,0.0,0.0,0.0,0.8974359035491943,0.31051284074783325,9.484102249145508,0.0,0.0,0.0,0.0,0.0,0.0,0.0,0.0,0.0
1646350917.9230611,10349,1646350917,922731268,,0.0,0.0,0.0,0.0,0.0,0.0,0.0,0.0,0.0,0.0,0.0,0.0,0.0,-0.031043240800499916,0.10983926802873611,-0.0037865692283958197,0.0,0.0,0.0,0.0,0.0,0.0,0.0,0.0,0.0,0.8400000333786011,0.012564103119075298,9.338717460632324,0.0,0.0,0.0,0.0,0.0,0.0,0.0,0.0,0.0
1646350917.9252775,10350,1646350917,924937295,,0.0,0.0,0.0,0.0,0.0,0.0,0.0,0.0,0.0,0.0,0.0,0.0,0.0,0.019024187698960304,0.08427292108535767,-0.020830798894166946,0.0,0.0,0.0,0.0,0.0,0.0,0.0,0.0,0.0,0.7520512938499451,0.19384616613388062,9.419486999511719,0.0,0.0,0.0,0.0,0.0,0.0,0.0,0.0,0.0
1646350917.9273875,10351,1646350917,927115960,,0.0,0.0,0.0,0.0,0.0,0.0,0.0,0.0,0.0,0.0,0.0,0.0,0.0,0.013697865419089794,0.11303506046533585,-0.016569742932915688,0.0,0.0,0.0,0.0,0.0,0.0,0.0,0.0,0.0,0.6264103055000305,0.17769230902194977,9.428462028503418,0.0,0.0,0.0,0.0,0.0,0.0,0.0,0.0,0.0
1646350917.929584,10352,1646350917,929322794,,0.0,0.0,0.0,0.0,0.0,0.0,0.0,0.0,0.0,0.0,0.0,0.0,0.0,0.03606841340661049,0.14925405383110046,0.013257660903036594,0.0,0.0,0.0,0.0,0.0,0.0,0.0,0.0,0.0,0.49358975887298584,-0.2028205245733261,9.45718002319336,0.0,0.0,0.0,0.0,0.0,0.0,0.0,0.0,0.0
1646350917.931798,10353,1646350917,931464733,,0.0,0.0,0.0,0.0,0.0,0.0,0.0,0.0,0.0,0.0,0.0,0.0,0.0,0.014763129875063896,0.11836138367652893,-0.028287649154663086,0.0,0.0,0.0,0.0,0.0,0.0,0.0,0.0,0.0,0.8094872236251831,0.3212820589542389,9.695897102355957,0.0,0.0,0.0,0.0,0.0,0.0,0.0,0.0,0.0
1646350917.933943,10354,1646350917,933650161,,0.0,0.0,0.0,0.0,0.0,0.0,0.0,0.0,0.0,0.0,0.0,0.0,0.0,0.019024187698960304,0.12794876098632812,-0.018700269982218742,0.0,0.0,0.0,0.0,0.0,0.0,0.0,0.0,0.0,0.5115384459495544,-0.14538460969924927,9.473333358764648,0.0,0.0,0.0,0.0,0.0,0.0,0.0,0.0,0.0
1646350917.9360673,10355,1646350917,935808676,,0.0,0.0,0.0,0.0,0.0,0.0,0.0,0.0,0.0,0.0,0.0,0.0,0.0,0.0030452206265181303,0.14073193073272705,-0.012308684177696705,0.0,0.0,0.0,0.0,0.0,0.0,0.0,0.0,0.0,0.6551282405853271,0.3769230842590332,9.721025466918945,0.0,0.0,0.0,0.0,0.0,0.0,0.0,0.0,0.0
1646350917.9381902,10356,1646350917,937939129,,0.0,0.0,0.0,0.0,0.0,0.0,0.0,0.0,0.0,0.0,0.0,0.0,0.0,-0.016129538416862488,0.13540561497211456,-0.008047626353800297,0.0,0.0,0.0,0.0,0.0,0.0,0.0,0.0,0.0,0.5007692575454712,-0.1328205168247223,9.557692527770996,0.0,0.0,0.0,0.0,0.0,0.0,0.0,0.0,0.0
1646350917.9404492,10357,1646350917,940122370,,0.0,0.0,0.0,0.0,0.0,0.0,0.0,0.0,0.0,0.0,0.0,0.0,0.0,-0.005476894788444042,0.1247529685497284,-0.021896062418818474,0.0,0.0,0.0,0.0,0.0,0.0,0.0,0.0,0.0,0.5402564406394958,0.25487178564071655,9.633076667785645,0.0,0.0,0.0,0.0,0.0,0.0,0.0,0.0,0.0
1646350917.9426167,10358,1646350917,942261067,,0.0,0.0,0.0,0.0,0.0,0.0,0.0,0.0,0.0,0.0,0.0,0.0,0.0,-0.018260065466165543,0.15564563870429993,-0.03041817992925644,0.0,0.0,0.0,0.0,0.0,0.0,0.0,0.0,0.0,0.5366666913032532,0.07717949151992798,9.478717803955078,0.0,0.0,0.0,0.0,0.0,0.0,0.0,0.0,0.0
1646350917.9445844,10359,1646350917,944384335,,0.0,0.0,0.0,0.0,0.0,0.0,0.0,0.0,0.0,0.0,0.0,0.0,0.0,-0.04169588163495064,0.1758856624364853,-0.011243419721722603,0.0,0.0,0.0,0.0,0.0,0.0,0.0,0.0,0.0,0.5797435641288757,0.3212820589542389,9.248974800109863,0.0,0.0,0.0,0.0,0.0,0.0,0.0,0.0,0.0
1646350917.9466884,10360,1646350917,946534431,,0.0,0.0,0.0,0.0,0.0,0.0,0.0,0.0,0.0,0.0,0.0,0.0,0.0,-0.053413789719343185,0.20038673281669617,0.000474488188046962,0.0,0.0,0.0,0.0,0.0,0.0,0.0,0.0,0.0,0.5151281952857971,0.19384616613388062,9.279486656188965,0.0,0.0,0.0,0.0,0.0,0.0,0.0,0.0,0.0
1646350917.948989,10361,1646350917,948729900,,0.0,0.0,0.0,0.0,0.0,0.0,0.0,0.0,0.0,0.0,0.0,0.0,0.0,-0.01932533085346222,0.21636569499969482,0.008996603079140186,0.0,0.0,0.0,0.0,0.0,0.0,0.0,0.0,0.0,0.34282052516937256,0.026923077180981636,9.19333267211914,0.0,0.0,0.0,0.0,0.0,0.0,0.0,0.0,0.0
1646350917.951856,10362,1646350917,950893418,,0.0,0.0,0.0,0.0,0.0,0.0,0.0,0.0,0.0,0.0,0.0,0.0,0.0,-0.04702220484614372,0.23234465718269348,-0.006982361897826195,0.0,0.0,0.0,0.0,0.0,0.0,0.0,0.0,0.0,0.4056410491466522,0.47025641798973083,9.14307689666748,0.0,0.0,0.0,0.0,0.0,0.0,0.0,0.0,0.0
1646350917.9533806,10363,1646350917,953102486,,0.0,0.0,0.0,0.0,0.0,0.0,0.0,0.0,0.0,0.0,0.0,0.0,0.0,-0.05447905510663986,0.2685636579990387,-0.025091856718063354,0.0,0.0,0.0,0.0,0.0,0.0,0.0,0.0,0.0,0.7843589782714844,0.12205128371715546,9.114358901977539,0.0,0.0,0.0,0.0,0.0,0.0,0.0,0.0,0.0
1646350917.9555259,10364,1646350917,955291041,,0.0,0.0,0.0,0.0,0.0,0.0,0.0,0.0,0.0,0.0,0.0,0.0,0.0,-0.038500092923641205,0.30158689618110657,0.017518719658255577,0.0,0.0,0.0,0.0,0.0,0.0,0.0,0.0,0.0,0.47564104199409485,0.6371794939041138,9.182563781738281,0.0,0.0,0.0,0.0,0.0,0.0,0.0,0.0,0.0
1646350917.9577525,10365,1646350917,957471345,,0.0,0.0,0.0,0.0,0.0,0.0,0.0,0.0,0.0,0.0,0.0,0.0,0.0,-0.05447905510663986,0.3378058671951294,0.008996603079140186,0.0,0.0,0.0,0.0,0.0,0.0,0.0,0.0,0.0,0.7592307925224304,0.2925640940666199,9.121538162231445,0.0,0.0,0.0,0.0,0.0,0.0,0.0,0.0,0.0
1646350917.9598658,10366,1646350917,959638511,,0.0,0.0,0.0,0.0,0.0,0.0,0.0,0.0,0.0,0.0,0.0,0.0,0.0,-0.03317376971244812,0.3473932445049286,-0.004851834382861853,0.0,0.0,0.0,0.0,0.0,0.0,0.0,0.0,0.0,0.6676923632621765,0.6605128645896912,9.381794929504395,0.0,0.0,0.0,0.0,0.0,0.0,0.0,0.0,0.0
1646350917.9628472,10367,1646350917,962673320,,0.0,0.0,0.0,0.0,0.0,0.0,0.0,0.0,0.0,0.0,0.0,0.0,0.0,-0.05554432049393654,0.38787326216697693,-0.009112890809774399,0.0,0.0,0.0,0.0,0.0,0.0,0.0,0.0,0.0,0.5976923108100891,0.46128207445144653,9.520000457763672,0.0,0.0,0.0,0.0,0.0,0.0,0.0,0.0,0.0
1646350917.9650476,10368,1646350917,964837793,,0.0,0.0,0.0,0.0,0.0,0.0,0.0,0.0,0.0,0.0,0.0,0.0,0.0,-0.04382640868425369,0.39533013105392456,0.012192396447062492,0.0,0.0,0.0,0.0,0.0,0.0,0.0,0.0,0.0,0.7412821054458618,0.1058974415063858,9.243589401245117,0.0,0.0,0.0,0.0,0.0,0.0,0.0,0.0,0.0
1646350917.967203,10369,1646350917,967061766,,0.0,0.0,0.0,0.0,0.0,0.0,0.0,0.0,0.0,0.0,0.0,0.0,0.0,-0.04063061624765396,0.40491750836372375,-0.016569742932915688,0.0,0.0,0.0,0.0,0.0,0.0,0.0,0.0,0.0,0.6928205490112305,0.5223076939582825,9.301025390625,0.0,0.0,0.0,0.0,0.0,0.0,0.0,0.0,0.0
1646350917.9694567,10370,1646350917,969210895,,0.0,0.0,0.0,0.0,0.0,0.0,0.0,0.0,0.0,0.0,0.0,0.0,0.0,-0.050217997282743454,0.4262228012084961,0.010061867535114288,0.0,0.0,0.0,0.0,0.0,0.0,0.0,0.0,0.0,0.9764102697372437,0.11666666716337204,9.317179679870605,0.0,0.0,0.0,0.0,0.0,0.0,0.0,0.0,0.0
1646350917.9716206,10371,1646350917,971388247,,0.0,0.0,0.0,0.0,0.0,0.0,0.0,0.0,0.0,0.0,0.0,0.0,0.0,-0.0342390350997448,0.46457231044769287,0.000474488188046962,0.0,0.0,0.0,0.0,0.0,0.0,0.0,0.0,0.0,0.8041025996208191,0.32487180829048157,9.24179458618164,0.0,0.0,0.0,0.0,0.0,0.0,0.0,0.0,0.0
1646350917.973736,10372,1646350917,973543052,,0.0,0.0,0.0,0.0,0.0,0.0,0.0,0.0,0.0,0.0,0.0,0.0,0.0,-0.03530430048704147,0.476290225982666,0.015388189814984798,0.0,0.0,0.0,0.0,0.0,0.0,0.0,0.0,0.0,0.9135897755622864,-0.02153846248984337,9.189743995666504,0.0,0.0,0.0,0.0,0.0,0.0,0.0,0.0,0.0
1646350917.975996,10373,1646350917,975720300,,0.0,0.0,0.0,0.0,0.0,0.0,0.0,0.0,0.0,0.0,0.0,0.0,0.0,-0.02678218111395836,0.4965302348136902,-0.012308684177696705,0.0,0.0,0.0,0.0,0.0,0.0,0.0,0.0,0.0,0.6838461756706238,0.4271794855594635,9.676154136657715,0.0,0.0,0.0,0.0,0.0,0.0,0.0,0.0,0.0
1646350917.9781823,10374,1646350917,977913927,,0.0,0.0,0.0,0.0,0.0,0.0,0.0,0.0,0.0,0.0,0.0,0.0,0.0,0.004110485315322876,0.5093134045600891,-0.014439214020967484,0.0,0.0,0.0,0.0,0.0,0.0,0.0,0.0,0.0,0.6569231152534485,0.0825641080737114,9.467948913574219,0.0,0.0,0.0,0.0,0.0,0.0,0.0,0.0,0.0
1646350917.9802222,10375,1646350917,980067790,,0.0,0.0,0.0,0.0,0.0,0.0,0.0,0.0,0.0,0.0,0.0,0.0,0.0,-0.00654215831309557,0.522096574306488,0.021779777482151985,0.0,0.0,0.0,0.0,0.0,0.0,0.0,0.0,0.0,0.8166666626930237,0.09333333373069763,9.527179718017578,0.0,0.0,0.0,0.0,0.0,0.0,0.0,0.0,0.0
1646350917.9825842,10376,1646350917,982246889,,0.0,0.0,0.0,0.0,0.0,0.0,0.0,0.0,0.0,0.0,0.0,0.0,0.0,0.008371543139219284,0.5370103120803833,-0.016569742932915688,0.0,0.0,0.0,0.0,0.0,0.0,0.0,0.0,0.0,0.6228205561637878,0.016153845936059952,9.9094877243042,0.0,0.0,0.0,0.0,0.0,0.0,0.0,0.0,0.0
1646350917.9846077,10377,1646350917,984404632,,0.0,0.0,0.0,0.0,0.0,0.0,0.0,0.0,0.0,0.0,0.0,0.0,0.0,-0.00441163033246994,0.5860124826431274,0.008996603079140186,0.0,0.0,0.0,0.0,0.0,0.0,0.0,0.0,0.0,0.3410256505012512,-0.19384616613388062,9.213077545166016,0.0,0.0,0.0,0.0,0.0,0.0,0.0,0.0,0.0
1646350917.9867742,10378,1646350917,986556919,,0.0,0.0,0.0,0.0,0.0,0.0,0.0,0.0,0.0,0.0,0.0,0.0,0.0,-0.00015057262498885393,0.5828167200088501,-0.0016560404328629375,0.0,0.0,0.0,0.0,0.0,0.0,0.0,0.0,0.0,0.41641026735305786,-0.10410256683826447,9.500256538391113,0.0,0.0,0.0,0.0,0.0,0.0,0.0,0.0,0.0
1646350917.988939,10379,1646350917,988719037,,0.0,0.0,0.0,0.0,0.0,0.0,0.0,0.0,0.0,0.0,0.0,0.0,0.0,0.010502072051167488,0.6073177456855774,-0.013373949564993382,0.0,0.0,0.0,0.0,0.0,0.0,0.0,0.0,0.0,0.19384616613388062,-0.49897435307502747,9.277692794799805,0.0,0.0,0.0,0.0,0.0,0.0,0.0,0.0,0.0
1646350917.9910073,10380,1646350917,990863932,,0.0,0.0,0.0,0.0,0.0,0.0,0.0,0.0,0.0,0.0,0.0,0.0,0.0,0.006241013761609793,0.6041219830513,-0.0368097685277462,0.0,0.0,0.0,0.0,0.0,0.0,0.0,0.0,0.0,0.45769232511520386,-0.2943589687347412,9.367435455322266,0.0,0.0,0.0,0.0,0.0,0.0,0.0,0.0,0.0
1646350917.9935696,10381,1646350917,993000102,,0.0,0.0,0.0,0.0,0.0,0.0,0.0,0.0,0.0,0.0,0.0,0.0,0.0,0.013697865419089794,0.6435367465019226,0.00686607463285327,0.0,0.0,0.0,0.0,0.0,0.0,0.0,0.0,0.0,0.23333333432674408,-0.44692307710647583,9.076666831970215,0.0,0.0,0.0,0.0,0.0,0.0,0.0,0.0,0.0
1646350917.9953532,10382,1646350917,995151061,,0.0,0.0,0.0,0.0,0.0,0.0,0.0,0.0,0.0,0.0,0.0,0.0,0.0,0.01156733650714159,0.6499283313751221,-0.014439214020967484,0.0,0.0,0.0,0.0,0.0,0.0,0.0,0.0,0.0,0.4684615433216095,-0.09871795028448105,9.20769214630127,0.0,0.0,0.0,0.0,0.0,0.0,0.0,0.0,0.0
1646350917.9973943,10383,1646350917,997238598,,0.0,0.0,0.0,0.0,0.0,0.0,0.0,0.0,0.0,0.0,0.0,0.0,0.0,0.009436807595193386,0.6616462469100952,-0.02296132780611515,0.0,0.0,0.0,0.0,0.0,0.0,0.0,0.0,0.0,0.5097435712814331,-0.42538464069366455,9.292051315307617,0.0,0.0,0.0,0.0,0.0,0.0,0.0,0.0,0.0
1646350917.9995263,10384,1646350917,999365818,,0.0,0.0,0.0,0.0,0.0,0.0,0.0,0.0,0.0,0.0,0.0,0.0,0.0,-0.008672687225043774,0.691473662853241,-0.021896062418818474,0.0,0.0,0.0,0.0,0.0,0.0,0.0,0.0,0.0,0.5600000023841858,-0.023333333432674408,9.399744033813477,0.0,0.0,0.0,0.0,0.0,0.0,0.0,0.0,0.0
1646350918.0016675,10385,1646350918,1486302,,0.0,0.0,0.0,0.0,0.0,0.0,0.0,0.0,0.0,0.0,0.0,0.0,0.0,0.010502072051167488,0.6818862557411194,-0.031483445316553116,0.0,0.0,0.0,0.0,0.0,0.0,0.0,0.0,0.0,0.43974360823631287,-0.12923076748847961,9.636667251586914,0.0,0.0,0.0,0.0,0.0,0.0,0.0,0.0,0.0
1646350918.003753,10386,1646350918,3597527,,0.0,0.0,0.0,0.0,0.0,0.0,0.0,0.0,0.0,0.0,0.0,0.0,0.0,-0.002281100954860449,0.6978652477264404,-0.024026591330766678,0.0,0.0,0.0,0.0,0.0,0.0,0.0,0.0,0.0,0.3033333420753479,-0.22615385055541992,9.464359283447266,0.0,0.0,0.0,0.0,0.0,0.0,0.0,0.0,0.0
1646350918.005791,10387,1646350918,5696067,,0.0,0.0,0.0,0.0,0.0,0.0,0.0,0.0,0.0,0.0,0.0,0.0,0.0,-0.02252112329006195,0.7308883666992188,-0.04213608428835869,0.0,0.0,0.0,0.0,0.0,0.0,0.0,0.0,0.0,0.2764102518558502,-0.03948718309402466,9.69410228729248,0.0,0.0,0.0,0.0,0.0,0.0,0.0,0.0,0.0
1646350918.0080774,10388,1646350918,7807858,,0.0,0.0,0.0,0.0,0.0,0.0,0.0,0.0,0.0,0.0,0.0,0.0,0.0,-0.020390594378113747,0.7266273498535156,-0.02296132780611515,0.0,0.0,0.0,0.0,0.0,0.0,0.0,0.0,0.0,0.40205129981040955,-0.010769231244921684,9.776666641235352,0.0,0.0,0.0,0.0,0.0,0.0,0.0,0.0,0.0
1646350918.0100741,10389,1646350918,9920870,,0.0,0.0,0.0,0.0,0.0,0.0,0.0,0.0,0.0,0.0,0.0,0.0,0.0,-0.03530430048704147,0.7511284351348877,-0.035744503140449524,0.0,0.0,0.0,0.0,0.0,0.0,0.0,0.0,0.0,0.24948717653751373,0.003589743748307228,9.730000495910645,0.0,0.0,0.0,0.0,0.0,0.0,0.0,0.0,0.0
1646350918.012163,10390,1646350918,12027843,,0.0,0.0,0.0,0.0,0.0,0.0,0.0,0.0,0.0,0.0,0.0,0.0,0.0,-0.04489167407155037,0.7511284351348877,-0.028287649154663086,0.0,0.0,0.0,0.0,0.0,0.0,0.0,0.0,0.0,0.06461538374423981,-0.012564103119075298,9.487691879272461,0.0,0.0,0.0,0.0,0.0,0.0,0.0,0.0,0.0
1646350918.0142844,10391,1646350918,14137227,,0.0,0.0,0.0,0.0,0.0,0.0,0.0,0.0,0.0,0.0,0.0,0.0,0.0,-0.09815489500761032,0.7617810368537903,-0.03041817992925644,0.0,0.0,0.0,0.0,0.0,0.0,0.0,0.0,0.0,0.18487180769443512,0.3141025900840759,9.839487075805664,0.0,0.0,0.0,0.0,0.0,0.0,0.0,0.0,0.0
1646350918.0163128,10392,1646350918,16232735,,0.0,0.0,0.0,0.0,0.0,0.0,0.0,0.0,0.0,0.0,0.0,0.0,0.0,-0.10135068744421005,0.767107367515564,-0.01976553350687027,0.0,0.0,0.0,0.0,0.0,0.0,0.0,0.0,0.0,0.1471794843673706,0.19205129146575928,9.563076972961426,0.0,0.0,0.0,0.0,0.0,0.0,0.0,0.0,0.0
1646350918.018534,10393,1646350918,18375026,,0.0,0.0,0.0,0.0,0.0,0.0,0.0,0.0,0.0,0.0,0.0,0.0,0.0,-0.08111066371202469,0.7884126901626587,-0.04746240749955177,0.0,0.0,0.0,0.0,0.0,0.0,0.0,0.0,0.0,0.23692308366298676,0.4792307913303375,9.679743766784668,0.0,0.0,0.0,0.0,0.0,0.0,0.0,0.0,0.0
1646350918.0207455,10394,1646350918,20593350,,0.0,0.0,0.0,0.0,0.0,0.0,0.0,0.0,0.0,0.0,0.0,0.0,0.0,-0.09602436423301697,0.791608452796936,-0.035744503140449524,0.0,0.0,0.0,0.0,0.0,0.0,0.0,0.0,0.0,0.38410258293151855,0.046666666865348816,9.484102249145508,0.0,0.0,0.0,0.0,0.0,0.0,0.0,0.0,0.0
1646350918.0227954,10395,1646350918,22682817,,0.0,0.0,0.0,0.0,0.0,0.0,0.0,0.0,0.0,0.0,0.0,0.0,0.0,-0.09602436423301697,0.8075874447822571,-0.05491925776004791,0.0,0.0,0.0,0.0,0.0,0.0,0.0,0.0,0.0,0.3858974575996399,0.5169230699539185,9.55589771270752,0.0,0.0,0.0,0.0,0.0,0.0,0.0,0.0,0.0
1646350918.0248892,10396,1646350918,24799667,,0.0,0.0,0.0,0.0,0.0,0.0,0.0,0.0,0.0,0.0,0.0,0.0,0.0,-0.09495910257101059,0.8320885300636292,-0.035744503140449524,0.0,0.0,0.0,0.0,0.0,0.0,0.0,0.0,0.0,0.3589743673801422,0.36974361538887024,9.475128173828125,0.0,0.0,0.0,0.0,0.0,0.0,0.0,0.0,0.0
1646350918.026998,10397,1646350918,26926248,,0.0,0.0,0.0,0.0,0.0,0.0,0.0,0.0,0.0,0.0,0.0,0.0,0.0,-0.05447905510663986,0.820370614528656,-0.05172346532344818,0.0,0.0,0.0,0.0,0.0,0.0,0.0,0.0,0.0,0.2064102590084076,0.5797435641288757,9.618718147277832,0.0,0.0,0.0,0.0,0.0,0.0,0.0,0.0,0.0
1646350918.02913,10398,1646350918,29032292,,0.0,0.0,0.0,0.0,0.0,0.0,0.0,0.0,0.0,0.0,0.0,0.0,0.0,-0.066196970641613,0.8427411317825317,-0.043201349675655365,0.0,0.0,0.0,0.0,0.0,0.0,0.0,0.0,0.0,0.41641026735305786,-0.01794871874153614,9.141282081604004,0.0,0.0,0.0,0.0,0.0,0.0,0.0,0.0,0.0
1646350918.03135,10399,1646350918,31232175,,0.0,0.0,0.0,0.0,0.0,0.0,0.0,0.0,0.0,0.0,0.0,0.0,0.0,-0.038500092923641205,0.8512632846832275,-0.016569742932915688,0.0,0.0,0.0,0.0,0.0,0.0,0.0,0.0,0.0,0.10230769217014313,0.09692308306694031,9.069487571716309,0.0,0.0,0.0,0.0,0.0,0.0,0.0,0.0,0.0
1646350918.036673,10400,1646350918,33364707,,0.0,0.0,0.0,0.0,0.0,0.0,0.0,0.0,0.0,0.0,0.0,0.0,0.0,-0.027847446501255035,0.8491327166557312,-0.03467923775315285,0.0,0.0,0.0,0.0,0.0,0.0,0.0,0.0,0.0,0.3033333420753479,0.19923077523708344,9.175384521484375,0.0,0.0,0.0,0.0,0.0,0.0,0.0,0.0,0.0
1646350918.0366778,10401,1646350918,35459626,,0.0,0.0,0.0,0.0,0.0,0.0,0.0,0.0,0.0,0.0,0.0,0.0,0.0,-0.002281100954860449,0.8395453691482544,-0.035744503140449524,0.0,0.0,0.0,0.0,0.0,0.0,0.0,0.0,0.0,-0.07179487496614456,-0.09333333373069763,8.891794204711914,0.0,0.0,0.0,0.0,0.0,0.0,0.0,0.0,0.0
1646350918.037659,10402,1646350918,37559054,,0.0,0.0,0.0,0.0,0.0,0.0,0.0,0.0,0.0,0.0,0.0,0.0,0.0,-0.002281100954860449,0.8619158864021301,-0.03467923775315285,0.0,0.0,0.0,0.0,0.0,0.0,0.0,0.0,0.0,0.08076923340559006,0.1382051259279251,9.572051048278809,0.0,0.0,0.0,0.0,0.0,0.0,0.0,0.0,0.0
1646350918.0398443,10403,1646350918,39654299,,0.0,0.0,0.0,0.0,0.0,0.0,0.0,0.0,0.0,0.0,0.0,0.0,0.0,0.03926420584321022,0.8523285388946533,-0.0368097685277462,0.0,0.0,0.0,0.0,0.0,0.0,0.0,0.0,0.0,-0.20102564990520477,-0.30512821674346924,9.064102172851562,0.0,0.0,0.0,0.0,0.0,0.0,0.0,0.0,0.0
1646350918.0418625,10404,1646350918,41725262,,0.0,0.0,0.0,0.0,0.0,0.0,0.0,0.0,0.0,0.0,0.0,0.0,0.0,0.03287262097001076,0.8565896153450012,-0.043201349675655365,0.0,0.0,0.0,0.0,0.0,0.0,0.0,0.0,0.0,-0.05923077091574669,-0.17769230902194977,9.489486694335938,0.0,0.0,0.0,0.0,0.0,0.0,0.0,0.0,0.0
1646350918.0442119,10405,1646350918,43942903,,0.0,0.0,0.0,0.0,0.0,0.0,0.0,0.0,0.0,0.0,0.0,0.0,0.0,0.055243175476789474,0.8683074712753296,-0.03254871070384979,0.0,0.0,0.0,0.0,0.0,0.0,0.0,0.0,0.0,-0.0735897421836853,-0.3858974575996399,9.494871139526367,0.0,0.0,0.0,0.0,0.0,0.0,0.0,0.0,0.0
1646350918.0462115,10406,1646350918,46044005,,0.0,0.0,0.0,0.0,0.0,0.0,0.0,0.0,0.0,0.0,0.0,0.0,0.0,0.07974426448345184,0.8310232162475586,-0.05598452314734459,0.0,0.0,0.0,0.0,0.0,0.0,0.0,0.0,0.0,-0.23692308366298676,-0.06641025841236115,10.040512084960938,0.0,0.0,0.0,0.0,0.0,0.0,0.0,0.0,0.0
1646350918.0483248,10407,1646350918,48191074,,0.0,0.0,0.0,0.0,0.0,0.0,0.0,0.0,0.0,0.0,0.0,0.0,0.0,0.06163476034998894,0.850197970867157,-0.053853992372751236,0.0,0.0,0.0,0.0,0.0,0.0,0.0,0.0,0.0,-0.10769230872392654,-0.5169230699539185,10.196666717529297,0.0,0.0,0.0,0.0,0.0,0.0,0.0,0.0,0.0
1646350918.0504484,10408,1646350918,50323894,,0.0,0.0,0.0,0.0,0.0,0.0,0.0,0.0,0.0,0.0,0.0,0.0,0.0,0.06909161061048508,0.8384801149368286,-0.040005557239055634,0.0,0.0,0.0,0.0,0.0,0.0,0.0,0.0,0.0,-0.31051284074783325,-0.12025640904903412,10.153590202331543,0.0,0.0,0.0,0.0,0.0,0.0,0.0,0.0,0.0
1646350918.0525253,10409,1646350918,52446751,,0.0,0.0,0.0,0.0,0.0,0.0,0.0,0.0,0.0,0.0,0.0,0.0,0.0,0.0680263489484787,0.8448716998100281,-0.03467923775315285,0.0,0.0,0.0,0.0,0.0,0.0,0.0,0.0,0.0,-0.6246154308319092,-0.41641026735305786,10.464102745056152,0.0,0.0,0.0,0.0,0.0,0.0,0.0,0.0,0.0
1646350918.054708,10410,1646350918,54586060,,0.0,0.0,0.0,0.0,0.0,0.0,0.0,0.0,0.0,0.0,0.0,0.0,0.0,0.058438967913389206,0.8374148011207581,-0.040005557239055634,0.0,0.0,0.0,0.0,0.0,0.0,0.0,0.0,0.0,-0.1471794843673706,-0.4864102602005005,10.575384140014648,0.0,0.0,0.0,0.0,0.0,0.0,0.0,0.0,0.0
1646350918.056802,10411,1646350918,56716575,,0.0,0.0,0.0,0.0,0.0,0.0,0.0,0.0,0.0,0.0,0.0,0.0,0.0,0.026481037959456444,0.8225011229515076,-0.046397142112255096,0.0,0.0,0.0,0.0,0.0,0.0,0.0,0.0,0.0,-0.47564104199409485,-0.5097435712814331,10.30435848236084,0.0,0.0,0.0,0.0,0.0,0.0,0.0,0.0,0.0
1646350918.0589283,10412,1646350918,58849444,,0.0,0.0,0.0,0.0,0.0,0.0,0.0,0.0,0.0,0.0,0.0,0.0,0.0,0.02008945122361183,0.8001305460929871,-0.04107082262635231,0.0,0.0,0.0,0.0,0.0,0.0,0.0,0.0,0.0,-0.4505128264427185,-0.29615384340286255,10.277436256408691,0.0,0.0,0.0,0.0,0.0,0.0,0.0,0.0,0.0
1646350918.0612571,10413,1646350918,61119915,,0.0,0.0,0.0,0.0,0.0,0.0,0.0,0.0,0.0,0.0,0.0,0.0,0.0,0.005175749771296978,0.8256969451904297,-0.04107082262635231,0.0,0.0,0.0,0.0,0.0,0.0,0.0,0.0,0.0,-0.4307692348957062,-0.21897436678409576,10.164359092712402,0.0,0.0,0.0,0.0,0.0,0.0,0.0,0.0,0.0
1646350918.0633569,10414,1646350918,63250868,,0.0,0.0,0.0,0.0,0.0,0.0,0.0,0.0,0.0,0.0,0.0,0.0,0.0,-0.018260065466165543,0.7852168679237366,-0.04426661506295204,0.0,0.0,0.0,0.0,0.0,0.0,0.0,0.0,0.0,-0.3320513069629669,-0.5725641250610352,10.189486503601074,0.0,0.0,0.0,0.0,0.0,0.0,0.0,0.0,0.0
1646350918.0654275,10415,1646350918,65349460,,0.0,0.0,0.0,0.0,0.0,0.0,0.0,0.0,0.0,0.0,0.0,0.0,0.0,-0.03317376971244812,0.7607157826423645,-0.0740940198302269,0.0,0.0,0.0,0.0,0.0,0.0,0.0,0.0,0.0,-0.3033333420753479,-0.3392307758331299,10.324103355407715,0.0,0.0,0.0,0.0,0.0,0.0,0.0,0.0,0.0
1646350918.0675163,10416,1646350918,67439813,,0.0,0.0,0.0,0.0,0.0,0.0,0.0,0.0,0.0,0.0,0.0,0.0,0.0,-0.07471907883882523,0.7862821221351624,-0.040005557239055634,0.0,0.0,0.0,0.0,0.0,0.0,0.0,0.0,0.0,-0.44692307710647583,-0.3320513069629669,10.236153602600098,0.0,0.0,0.0,0.0,0.0,0.0,0.0,0.0,0.0
1646350918.0696158,10417,1646350918,69534689,,0.0,0.0,0.0,0.0,0.0,0.0,0.0,0.0,0.0,0.0,0.0,0.0,0.0,-0.08643698692321777,0.738345205783844,-0.061310846358537674,0.0,0.0,0.0,0.0,0.0,0.0,0.0,0.0,0.0,-0.37512820959091187,0.4217948913574219,10.234358787536621,0.0,0.0,0.0,0.0,0.0,0.0,0.0,0.0,0.0
1646350918.0719008,10418,1646350918,71771023,,0.0,0.0,0.0,0.0,0.0,0.0,0.0,0.0,0.0,0.0,0.0,0.0,0.0,-0.11200333386659622,0.7234315276145935,-0.04533188045024872,0.0,0.0,0.0,0.0,0.0,0.0,0.0,0.0,0.0,-0.25487178564071655,-0.10410256683826447,10.178717613220215,0.0,0.0,0.0,0.0,0.0,0.0,0.0,0.0,0.0
1646350918.074358,10419,1646350918,73972525,,0.0,0.0,0.0,0.0,0.0,0.0,0.0,0.0,0.0,0.0,0.0,0.0,0.0,-0.12478651106357574,0.7266273498535156,-0.05491925776004791,0.0,0.0,0.0,0.0,0.0,0.0,0.0,0.0,0.0,-0.2441025674343109,0.2656410336494446,10.28820514678955,0.0,0.0,0.0,0.0,0.0,0.0,0.0,0.0,0.0
1646350918.0762842,10420,1646350918,76168352,,0.0,0.0,0.0,0.0,0.0,0.0,0.0,0.0,0.0,0.0,0.0,0.0,0.0,-0.12052544951438904,0.6818862557411194,-0.012308684177696705,0.0,0.0,0.0,0.0,0.0,0.0,0.0,0.0,0.0,-0.12205128371715546,0.06282051652669907,9.882563591003418,0.0,0.0,0.0,0.0,0.0,0.0,0.0,0.0,0.0
1646350918.0783222,10421,1646350918,78255416,,0.0,0.0,0.0,0.0,0.0,0.0,0.0,0.0,0.0,0.0,0.0,0.0,0.0,-0.10880754142999649,0.6829515695571899,-0.04426661506295204,0.0,0.0,0.0,0.0,0.0,0.0,0.0,0.0,0.0,-0.33384618163108826,0.4594871997833252,10.241538047790527,0.0,0.0,0.0,0.0,0.0,0.0,0.0,0.0,0.0
1646350918.0805418,10422,1646350918,80401241,,0.0,0.0,0.0,0.0,0.0,0.0,0.0,0.0,0.0,0.0,0.0,0.0,0.0,-0.09069804847240448,0.6424714922904968,-0.05598452314734459,0.0,0.0,0.0,0.0,0.0,0.0,0.0,0.0,0.0,-0.5528205037117004,0.4882051348686218,10.011795043945312,0.0,0.0,0.0,0.0,0.0,0.0,0.0,0.0,0.0
1646350918.0826223,10423,1646350918,82500173,,0.0,0.0,0.0,0.0,0.0,0.0,0.0,0.0,0.0,0.0,0.0,0.0,0.0,-0.10135068744421005,0.6573852300643921,-0.02722238563001156,0.0,0.0,0.0,0.0,0.0,0.0,0.0,0.0,0.0,-0.6443589925765991,0.2710256576538086,10.114103317260742,0.0,0.0,0.0,0.0,0.0,0.0,0.0,0.0,0.0
1646350918.084909,10424,1646350918,84760855,,0.0,0.0,0.0,0.0,0.0,0.0,0.0,0.0,0.0,0.0,0.0,0.0,0.0,-0.09282857179641724,0.608383059501648,-0.028287649154663086,0.0,0.0,0.0,0.0,0.0,0.0,0.0,0.0,0.0,-0.7233333587646484,0.6784615516662598,10.272051811218262,0.0,0.0,0.0,0.0,0.0,0.0,0.0,0.0,0.0
1646350918.0869837,10425,1646350918,86853307,,0.0,0.0,0.0,0.0,0.0,0.0,0.0,0.0,0.0,0.0,0.0,0.0,0.0,-0.10667701065540314,0.5966651439666748,-0.0005907765007577837,0.0,0.0,0.0,0.0,0.0,0.0,0.0,0.0,0.0,-0.4971795082092285,0.6802564263343811,10.018974304199219,0.0,0.0,0.0,0.0,0.0,0.0,0.0,0.0,0.0
1646350918.0890284,10426,1646350918,88945638,,0.0,0.0,0.0,0.0,0.0,0.0,0.0,0.0,0.0,0.0,0.0,0.0,0.0,-0.0715232864022255,0.5849472284317017,-0.029352914541959763,0.0,0.0,0.0,0.0,0.0,0.0,0.0,0.0,0.0,-0.5600000023841858,0.3500000238418579,10.482051849365234,0.0,0.0,0.0,0.0,0.0,0.0,0.0,0.0,0.0
1646350918.0911384,10427,1646350918,91035844,,0.0,0.0,0.0,0.0,0.0,0.0,0.0,0.0,0.0,0.0,0.0,0.0,0.0,-0.05128326267004013,0.571098804473877,-0.018700269982218742,0.0,0.0,0.0,0.0,0.0,0.0,0.0,0.0,0.0,-0.8435897827148438,0.3033333420753479,10.160768508911133,0.0,0.0,0.0,0.0,0.0,0.0,0.0,0.0,0.0
1646350918.093267,10428,1646350918,93138661,,0.0,0.0,0.0,0.0,0.0,0.0,0.0,0.0,0.0,0.0,0.0,0.0,0.0,-0.042761147022247314,0.5476629137992859,-0.015504478476941586,0.0,0.0,0.0,0.0,0.0,0.0,0.0,0.0,0.0,-0.8023077249526978,0.5582051277160645,10.44435977935791,0.0,0.0,0.0,0.0,0.0,0.0,0.0,0.0,0.0
1646350918.095417,10429,1646350918,95239207,,0.0,0.0,0.0,0.0,0.0,0.0,0.0,0.0,0.0,0.0,0.0,0.0,0.0,-0.002281100954860449,0.5370103120803833,-0.013373949564993382,0.0,0.0,0.0,0.0,0.0,0.0,0.0,0.0,0.0,-0.6120513081550598,0.3176923394203186,10.257692337036133,0.0,0.0,0.0,0.0,0.0,0.0,0.0,0.0,0.0
1646350918.097532,10430,1646350918,97345239,,0.0,0.0,0.0,0.0,0.0,0.0,0.0,0.0,0.0,0.0,0.0,0.0,0.0,0.02008945122361183,0.5114439129829407,0.012192396447062492,0.0,0.0,0.0,0.0,0.0,0.0,0.0,0.0,0.0,-0.5241025686264038,0.37871795892715454,10.094359397888184,0.0,0.0,0.0,0.0,0.0,0.0,0.0,0.0,0.0
1646350918.0996754,10431,1646350918,99452402,,0.0,0.0,0.0,0.0,0.0,0.0,0.0,0.0,0.0,0.0,0.0,0.0,0.0,0.040329474955797195,0.49866077303886414,-0.0027213047724217176,0.0,0.0,0.0,0.0,0.0,0.0,0.0,0.0,0.0,-0.44692307710647583,-0.014358974993228912,10.14102554321289,0.0,0.0,0.0,0.0,0.0,0.0,0.0,0.0,0.0
1646350918.1017125,10432,1646350918,101592131,,0.0,0.0,0.0,0.0,0.0,0.0,0.0,0.0,0.0,0.0,0.0,0.0,0.0,0.05737370252609253,0.4912039041519165,-0.006982361897826195,0.0,0.0,0.0,0.0,0.0,0.0,0.0,0.0,0.0,-0.6246154308319092,0.12025640904903412,10.060256004333496,0.0,0.0,0.0,0.0,0.0,0.0,0.0,0.0,0.0
1646350918.1039722,10433,1646350918,103762923,,0.0,0.0,0.0,0.0,0.0,0.0,0.0,0.0,0.0,0.0,0.0,0.0,0.0,0.07335267215967178,0.4816165268421173,0.000474488188046962,0.0,0.0,0.0,0.0,0.0,0.0,0.0,0.0,0.0,-0.4271794855594635,-0.4594871997833252,9.832307815551758,0.0,0.0,0.0,0.0,0.0,0.0,0.0,0.0,0.0
1646350918.1062346,10434,1646350918,105963834,,0.0,0.0,0.0,0.0,0.0,0.0,0.0,0.0,0.0,0.0,0.0,0.0,0.0,0.09465795010328293,0.4539196491241455,0.0015397525858134031,0.0,0.0,0.0,0.0,0.0,0.0,0.0,0.0,0.0,-0.4828205108642578,-0.3912820518016815,10.022564888000488,0.0,0.0,0.0,0.0,0.0,0.0,0.0,0.0,0.0
1646350918.1084352,10435,1646350918,108185329,,0.0,0.0,0.0,0.0,0.0,0.0,0.0,0.0,0.0,0.0,0.0,0.0,0.0,0.11809376627206802,0.4294185936450958,-0.0027213047724217176,0.0,0.0,0.0,0.0,0.0,0.0,0.0,0.0,0.0,-0.6730769276618958,-0.4217948913574219,9.936410903930664,0.0,0.0,0.0,0.0,0.0,0.0,0.0,0.0,0.0
1646350918.1105585,10436,1646350918,110313095,,0.0,0.0,0.0,0.0,0.0,0.0,0.0,0.0,0.0,0.0,0.0,0.0,0.0,0.11809376627206802,0.43687543272972107,-0.004851834382861853,0.0,0.0,0.0,0.0,0.0,0.0,0.0,0.0,0.0,-0.6048718094825745,-0.7753846645355225,9.983077049255371,0.0,0.0,0.0,0.0,0.0,0.0,0.0,0.0,0.0
1646350918.1126788,10437,1646350918,112465363,,0.0,0.0,0.0,0.0,0.0,0.0,0.0,0.0,0.0,0.0,0.0,0.0,0.0,0.10957165062427521,0.4134396016597748,0.017518719658255577,0.0,0.0,0.0,0.0,0.0,0.0,0.0,0.0,0.0,-0.8274359107017517,-0.6748718023300171,10.555641174316406,0.0,0.0,0.0,0.0,0.0,0.0,0.0,0.0,0.0
1646350918.1154523,10438,1646350918,114617459,,0.0,0.0,0.0,0.0,0.0,0.0,0.0,0.0,0.0,0.0,0.0,0.0,0.0,0.10744111984968185,0.3846774697303772,-0.0005907765007577837,0.0,0.0,0.0,0.0,0.0,0.0,0.0,0.0,0.0,-0.8615384697914124,-1.0123077630996704,10.207435607910156,0.0,0.0,0.0,0.0,0.0,0.0,0.0,0.0,0.0
1646350918.1170561,10439,1646350918,116785727,,0.0,0.0,0.0,0.0,0.0,0.0,0.0,0.0,0.0,0.0,0.0,0.0,0.0,0.09146217256784439,0.37189429998397827,-0.013373949564993382,0.0,0.0,0.0,0.0,0.0,0.0,0.0,0.0,0.0,-0.6982051730155945,-0.829230785369873,10.819487571716309,0.0,0.0,0.0,0.0,0.0,0.0,0.0,0.0,0.0
1646350918.1192384,10440,1646350918,118979673,,0.0,0.0,0.0,0.0,0.0,0.0,0.0,0.0,0.0,0.0,0.0,0.0,0.0,0.0680263489484787,0.3655027151107788,-0.011243419721722603,0.0,0.0,0.0,0.0,0.0,0.0,0.0,0.0,0.0,-0.9800000190734863,-1.0069230794906616,10.569999694824219,0.0,0.0,0.0,0.0,0.0,0.0,0.0,0.0,0.0
1646350918.1213737,10441,1646350918,121125516,,0.0,0.0,0.0,0.0,0.0,0.0,0.0,0.0,0.0,0.0,0.0,0.0,0.0,0.052047379314899445,0.32608795166015625,-0.0101781552657485,0.0,0.0,0.0,0.0,0.0,0.0,0.0,0.0,0.0,-0.6784615516662598,-0.6946154236793518,10.223589897155762,0.0,0.0,0.0,0.0,0.0,0.0,0.0,0.0,0.0
1646350918.12363,10442,1646350918,123289123,,0.0,0.0,0.0,0.0,0.0,0.0,0.0,0.0,0.0,0.0,0.0,0.0,0.0,0.015828393399715424,0.32182690501213074,-0.026157120242714882,0.0,0.0,0.0,0.0,0.0,0.0,0.0,0.0,0.0,-0.9387179613113403,-0.9441025853157043,11.174871444702148,0.0,0.0,0.0,0.0,0.0,0.0,0.0,0.0,0.0
1646350918.1259048,10443,1646350918,125516140,,0.0,0.0,0.0,0.0,0.0,0.0,0.0,0.0,0.0,0.0,0.0,0.0,0.0,-0.02571691758930683,0.3047826886177063,-0.004851834382861853,0.0,0.0,0.0,0.0,0.0,0.0,0.0,0.0,0.0,-0.6533333659172058,-0.14538460969924927,10.501794815063477,0.0,0.0,0.0,0.0,0.0,0.0,0.0,0.0,0.0
1646350918.1279776,10444,1646350918,127701356,,0.0,0.0,0.0,0.0,0.0,0.0,0.0,0.0,0.0,0.0,0.0,0.0,0.0,-0.07365381717681885,0.28986895084381104,-0.02722238563001156,0.0,0.0,0.0,0.0,0.0,0.0,0.0,0.0,0.0,-0.5887179374694824,-0.36076924204826355,11.004359245300293,0.0,0.0,0.0,0.0,0.0,0.0,0.0,0.0,0.0
1646350918.1301658,10445,1646350918,129919503,,0.0,0.0,0.0,0.0,0.0,0.0,0.0,0.0,0.0,0.0,0.0,0.0,0.0,-0.11093807220458984,0.27495524287223816,-0.009112890809774399,0.0,0.0,0.0,0.0,0.0,0.0,0.0,0.0,0.0,-0.8507692813873291,-0.4828205108642578,10.19487190246582,0.0,0.0,0.0,0.0,0.0,0.0,0.0,0.0,0.0
1646350918.1324103,10446,1646350918,132161759,,0.0,0.0,0.0,0.0,0.0,0.0,0.0,0.0,0.0,0.0,0.0,0.0,0.0,-0.10880754142999649,0.26643311977386475,-0.04213608428835869,0.0,0.0,0.0,0.0,0.0,0.0,0.0,0.0,0.0,-0.7951282262802124,-0.2297435998916626,10.821281433105469,0.0,0.0,0.0,0.0,0.0,0.0,0.0,0.0,0.0
1646350918.1346822,10447,1646350918,134399629,,0.0,0.0,0.0,0.0,0.0,0.0,0.0,0.0,0.0,0.0,0.0,0.0,0.0,-0.15141811966896057,0.23340992629528046,0.013257660903036594,0.0,0.0,0.0,0.0,0.0,0.0,0.0,0.0,0.0,-0.6712821125984192,0.12743589282035828,10.23794937133789,0.0,0.0,0.0,0.0,0.0,0.0,0.0,0.0,0.0
1646350918.1369212,10448,1646350918,136627833,,0.0,0.0,0.0,0.0,0.0,0.0,0.0,0.0,0.0,0.0,0.0,0.0,0.0,-0.17272339761257172,0.2174309641122818,-0.018700269982218742,0.0,0.0,0.0,0.0,0.0,0.0,0.0,0.0,0.0,-0.4792307913303375,0.43435898423194885,10.516154289245605,0.0,0.0,0.0,0.0,0.0,0.0,0.0,0.0,0.0
1646350918.139084,10449,1646350918,138834121,,0.0,0.0,0.0,0.0,0.0,0.0,0.0,0.0,0.0,0.0,0.0,0.0,0.0,-0.16313602030277252,0.21103936433792114,0.0026050168089568615,0.0,0.0,0.0,0.0,0.0,0.0,0.0,0.0,0.0,-0.3715384900569916,0.1561538577079773,9.51282024383545,0.0,0.0,0.0,0.0,0.0,0.0,0.0,0.0,0.0
1646350918.141259,10450,1646350918,140995506,,0.0,0.0,0.0,0.0,0.0,0.0,0.0,0.0,0.0,0.0,0.0,0.0,0.0,-0.1737886518239975,0.21849621832370758,-0.005917098838835955,0.0,0.0,0.0,0.0,0.0,0.0,0.0,0.0,0.0,-0.6856410503387451,0.7053846716880798,10.345641136169434,0.0,0.0,0.0,0.0,0.0,0.0,0.0,0.0,0.0
1646350918.1435823,10451,1646350918,143223305,,0.0,0.0,0.0,0.0,0.0,0.0,0.0,0.0,0.0,0.0,0.0,0.0,0.0,-0.1460917890071869,0.18973408639431,0.01112713199108839,0.0,0.0,0.0,0.0,0.0,0.0,0.0,0.0,0.0,-0.6641026139259338,0.5833333134651184,9.593589782714844,0.0,0.0,0.0,0.0,0.0,0.0,0.0,0.0,0.0
1646350918.145718,10452,1646350918,145401568,,0.0,0.0,0.0,0.0,0.0,0.0,0.0,0.0,0.0,0.0,0.0,0.0,0.0,-0.11626439541578293,0.18121197819709778,-0.0005907765007577837,0.0,0.0,0.0,0.0,0.0,0.0,0.0,0.0,0.0,-0.7664102911949158,0.6425641179084778,9.672564506530762,0.0,0.0,0.0,0.0,0.0,0.0,0.0,0.0,0.0
1646350918.148001,10453,1646350918,147644289,,0.0,0.0,0.0,0.0,0.0,0.0,0.0,0.0,0.0,0.0,0.0,0.0,0.0,-0.06726223230361938,0.15990670025348663,0.015388189814984798,0.0,0.0,0.0,0.0,0.0,0.0,0.0,0.0,0.0,-0.7807692289352417,0.8884615302085876,9.471538543701172,0.0,0.0,0.0,0.0,0.0,0.0,0.0,0.0,0.0
1646350918.150204,10454,1646350918,149869534,,0.0,0.0,0.0,0.0,0.0,0.0,0.0,0.0,0.0,0.0,0.0,0.0,0.0,-0.04169588163495064,0.1567109078168869,0.0281713604927063,0.0,0.0,0.0,0.0,0.0,0.0,0.0,0.0,0.0,-0.6748718023300171,0.6282051801681519,9.55230712890625,0.0,0.0,0.0,0.0,0.0,0.0,0.0,0.0,0.0
1646350918.1524477,10455,1646350918,152045607,,0.0,0.0,0.0,0.0,0.0,0.0,0.0,0.0,0.0,0.0,0.0,0.0,0.0,-0.016129538416862488,0.15884143114089966,0.024975569918751717,0.0,0.0,0.0,0.0,0.0,0.0,0.0,0.0,0.0,-0.6551282405853271,0.6084615588188171,9.672564506530762,0.0,0.0,0.0,0.0,0.0,0.0,0.0,0.0,0.0
1646350918.1545186,10456,1646350918,154232051,,0.0,0.0,0.0,0.0,0.0,0.0,0.0,0.0,0.0,0.0,0.0,0.0,0.0,0.010502072051167488,0.13647088408470154,0.02391030639410019,0.0,0.0,0.0,0.0,0.0,0.0,0.0,0.0,0.0,-1.0894871950149536,0.4002564251422882,9.383589744567871,0.0,0.0,0.0,0.0,0.0,0.0,0.0,0.0,0.0
1646350918.1575992,10457,1646350918,156470602,,0.0,0.0,0.0,0.0,0.0,0.0,0.0,0.0,0.0,0.0,0.0,0.0,0.0,0.09146217256784439,0.14392772316932678,0.021779777482151985,0.0,0.0,0.0,0.0,0.0,0.0,0.0,0.0,0.0,-0.44333335757255554,0.5402564406394958,9.651025772094727,0.0,0.0,0.0,0.0,0.0,0.0,0.0,0.0,0.0
1646350918.159057,10458,1646350918,158642575,,0.0,0.0,0.0,0.0,0.0,0.0,0.0,0.0,0.0,0.0,0.0,0.0,0.0,0.10850638896226883,0.12155717611312866,0.0058008101768791676,0.0,0.0,0.0,0.0,0.0,0.0,0.0,0.0,0.0,-0.7017949223518372,0.1058974415063858,9.622307777404785,0.0,0.0,0.0,0.0,0.0,0.0,0.0,0.0,0.0
1646350918.1611133,10459,1646350918,160809373,,0.0,0.0,0.0,0.0,0.0,0.0,0.0,0.0,0.0,0.0,0.0,0.0,0.0,0.15431277453899384,0.10557820647954941,0.03562821075320244,0.0,0.0,0.0,0.0,0.0,0.0,0.0,0.0,0.0,-0.8561538457870483,-0.1238461583852768,9.598974227905273,0.0,0.0,0.0,0.0,0.0,0.0,0.0,0.0,0.0
1646350918.1632555,10460,1646350918,162985074,,0.0,0.0,0.0,0.0,0.0,0.0,0.0,0.0,0.0,0.0,0.0,0.0,0.0,0.15857383608818054,0.11623085290193558,0.029236625880002975,0.0,0.0,0.0,0.0,0.0,0.0,0.0,0.0,0.0,-0.8310256600379944,-0.07000000029802322,9.871794700622559,0.0,0.0,0.0,0.0,0.0,0.0,0.0,0.0,0.0
1646350918.1654158,10461,1646350918,165134576,,0.0,0.0,0.0,0.0,0.0,0.0,0.0,0.0,0.0,0.0,0.0,0.0,0.0,0.17561806738376617,0.08107712864875793,0.02710609696805477,0.0,0.0,0.0,0.0,0.0,0.0,0.0,0.0,0.0,-0.9817948937416077,-0.48461538553237915,9.817949295043945,0.0,0.0,0.0,0.0,0.0,0.0,0.0,0.0,0.0
1646350918.1675131,10462,1646350918,167310943,,0.0,0.0,0.0,0.0,0.0,0.0,0.0,0.0,0.0,0.0,0.0,0.0,0.0,0.1468559205532074,0.10557820647954941,0.030301889404654503,0.0,0.0,0.0,0.0,0.0,0.0,0.0,0.0,0.0,-0.6497436165809631,-0.49897435307502747,9.712051391601562,0.0,0.0,0.0,0.0,0.0,0.0,0.0,0.0,0.0
1646350918.1698043,10463,1646350918,169545669,,0.0,0.0,0.0,0.0,0.0,0.0,0.0,0.0,0.0,0.0,0.0,0.0,0.0,0.12235482782125473,0.08214239031076431,0.0047355457209050655,0.0,0.0,0.0,0.0,0.0,0.0,0.0,0.0,0.0,-0.8023077249526978,-0.3535897731781006,10.045896530151367,0.0,0.0,0.0,0.0,0.0,0.0,0.0,0.0,0.0
1646350918.1719418,10464,1646350918,171714314,,0.0,0.0,0.0,0.0,0.0,0.0,0.0,0.0,0.0,0.0,0.0,0.0,0.0,0.08294005692005157,0.11196979135274887,0.014322925359010696,0.0,0.0,0.0,0.0,0.0,0.0,0.0,0.0,0.0,-0.8058974742889404,-0.42897436022758484,9.893333435058594,0.0,0.0,0.0,0.0,0.0,0.0,0.0,0.0,0.0
1646350918.174202,10465,1646350918,173883327,,0.0,0.0,0.0,0.0,0.0,0.0,0.0,0.0,0.0,0.0,0.0,0.0,0.0,0.07761373370885849,0.0874687135219574,-0.004851834382861853,0.0,0.0,0.0,0.0,0.0,0.0,0.0,0.0,0.0,-0.7915384769439697,-0.5761538743972778,9.918461799621582,0.0,0.0,0.0,0.0,0.0,0.0,0.0,0.0,0.0
1646350918.1763935,10466,1646350918,176061703,,0.0,0.0,0.0,0.0,0.0,0.0,0.0,0.0,0.0,0.0,0.0,0.0,0.0,0.03180735930800438,0.10344768315553665,0.0036702812649309635,0.0,0.0,0.0,0.0,0.0,0.0,0.0,0.0,0.0,-0.7107692360877991,-0.5061538815498352,10.108718872070312,0.0,0.0,0.0,0.0,0.0,0.0,0.0,0.0,0.0
1646350918.1786265,10467,1646350918,178243117,,0.0,0.0,0.0,0.0,0.0,0.0,0.0,0.0,0.0,0.0,0.0,0.0,0.0,-0.028912710025906563,0.09599082916975021,-0.0037865692283958197,0.0,0.0,0.0,0.0,0.0,0.0,0.0,0.0,0.0,-0.8076923489570618,-0.4738461673259735,10.307948112487793,0.0,0.0,0.0,0.0,0.0,0.0,0.0,0.0,0.0
1646350918.1807804,10468,1646350918,180448902,,0.0,0.0,0.0,0.0,0.0,0.0,0.0,0.0,0.0,0.0,0.0,0.0,0.0,-0.03530430048704147,0.09386029839515686,-0.012308684177696705,0.0,0.0,0.0,0.0,0.0,0.0,0.0,0.0,0.0,-0.8202564120292664,-0.5384615659713745,9.870000839233398,0.0,0.0,0.0,0.0,0.0,0.0,0.0,0.0,0.0
1646350918.1830533,10469,1646350918,182624516,,0.0,0.0,0.0,0.0,0.0,0.0,0.0,0.0,0.0,0.0,0.0,0.0,0.0,-0.057674847543239594,0.0736202746629715,-0.0027213047724217176,0.0,0.0,0.0,0.0,0.0,0.0,0.0,0.0,0.0,-0.818461537361145,-0.3212820589542389,10.115897178649902,0.0,0.0,0.0,0.0,0.0,0.0,0.0,0.0,0.0
1646350918.1851819,10470,1646350918,184867871,,0.0,0.0,0.0,0.0,0.0,0.0,0.0,0.0,0.0,0.0,0.0,0.0,0.0,-0.08856751769781113,0.09066450595855713,-0.0027213047724217176,0.0,0.0,0.0,0.0,0.0,0.0,0.0,0.0,0.0,-0.5438461303710938,-0.47564104199409485,9.70846176147461,0.0,0.0,0.0,0.0,0.0,0.0,0.0,0.0,0.0
1646350918.1874685,10471,1646350918,187131322,,0.0,0.0,0.0,0.0,0.0,0.0,0.0,0.0,0.0,0.0,0.0,0.0,0.0,-0.10135068744421005,0.08853397518396378,0.012192396447062492,0.0,0.0,0.0,0.0,0.0,0.0,0.0,0.0,0.0,-0.6605128645896912,0.001794871874153614,9.846667289733887,0.0,0.0,0.0,0.0,0.0,0.0,0.0,0.0,0.0
1646350918.189743,10472,1646350918,189335269,,0.0,0.0,0.0,0.0,0.0,0.0,0.0,0.0,0.0,0.0,0.0,0.0,0.0,-0.09815489500761032,0.06722868978977203,0.000474488188046962,0.0,0.0,0.0,0.0,0.0,0.0,0.0,0.0,0.0,-0.6766666769981384,-0.2566666603088379,9.670769691467285,0.0,0.0,0.0,0.0,0.0,0.0,0.0,0.0,0.0
1646350918.191825,10473,1646350918,191518840,,0.0,0.0,0.0,0.0,0.0,0.0,0.0,0.0,0.0,0.0,0.0,0.0,0.0,-0.066196970641613,0.08533818274736404,-0.011243419721722603,0.0,0.0,0.0,0.0,0.0,0.0,0.0,0.0,0.0,-0.8058974742889404,-0.15974359214305878,9.584615707397461,0.0,0.0,0.0,0.0,0.0,0.0,0.0,0.0,0.0
1646350918.1940367,10474,1646350918,193721053,,0.0,0.0,0.0,0.0,0.0,0.0,0.0,0.0,0.0,0.0,0.0,0.0,0.0,-0.066196970641613,0.09812135994434357,-0.0027213047724217176,0.0,0.0,0.0,0.0,0.0,0.0,0.0,0.0,0.0,-0.8920512795448303,0.1794871836900711,9.756922721862793,0.0,0.0,0.0,0.0,0.0,0.0,0.0,0.0,0.0
1646350918.1961315,10475,1646350918,195907581,,0.0,0.0,0.0,0.0,0.0,0.0,0.0,0.0,0.0,0.0,0.0,0.0,0.0,-0.08856751769781113,0.07148974388837814,0.021779777482151985,0.0,0.0,0.0,0.0,0.0,0.0,0.0,0.0,0.0,-0.6748718023300171,-0.048461541533470154,9.581025123596191,0.0,0.0,0.0,0.0,0.0,0.0,0.0,0.0,0.0
1646350918.1990008,10476,1646350918,198112571,,0.0,0.0,0.0,0.0,0.0,0.0,0.0,0.0,0.0,0.0,0.0,0.0,0.0,-0.050217997282743454,0.06935922056436539,-0.02296132780611515,0.0,0.0,0.0,0.0,0.0,0.0,0.0,0.0,0.0,-0.6407692432403564,0.12923076748847961,10.130256652832031,0.0,0.0,0.0,0.0,0.0,0.0,0.0,0.0,0.0
1646350918.2006257,10477,1646350918,200327201,,0.0,0.0,0.0,0.0,0.0,0.0,0.0,0.0,0.0,0.0,0.0,0.0,0.0,-0.024651652202010155,0.06616342067718506,0.0058008101768791676,0.0,0.0,0.0,0.0,0.0,0.0,0.0,0.0,0.0,-0.4415384829044342,0.012564103119075298,9.776666641235352,0.0,0.0,0.0,0.0,0.0,0.0,0.0,0.0,0.0
1646350918.202826,10478,1646350918,202570624,,0.0,0.0,0.0,0.0,0.0,0.0,0.0,0.0,0.0,0.0,0.0,0.0,0.0,-0.018260065466165543,0.05338025465607643,-0.004851834382861853,0.0,0.0,0.0,0.0,0.0,0.0,0.0,0.0,0.0,-0.6533333659172058,0.2674359083175659,10.054871559143066,0.0,0.0,0.0,0.0,0.0,0.0,0.0,0.0,0.0
1646350918.2050426,10479,1646350918,204758681,,0.0,0.0,0.0,0.0,0.0,0.0,0.0,0.0,0.0,0.0,0.0,0.0,0.0,0.02008945122361183,0.05764130875468254,0.0281713604927063,0.0,0.0,0.0,0.0,0.0,0.0,0.0,0.0,0.0,-0.5276923179626465,-0.12564103305339813,9.773077011108398,0.0,0.0,0.0,0.0,0.0,0.0,0.0,0.0,0.0
1646350918.207187,10480,1646350918,206980199,,0.0,0.0,0.0,0.0,0.0,0.0,0.0,0.0,0.0,0.0,0.0,0.0,0.0,0.037133678793907166,0.0736202746629715,-0.0101781552657485,0.0,0.0,0.0,0.0,0.0,0.0,0.0,0.0,0.0,-0.7933333516120911,0.36615386605262756,10.128461837768555,0.0,0.0,0.0,0.0,0.0,0.0,0.0,0.0,0.0
1646350918.2094338,10481,1646350918,209175303,,0.0,0.0,0.0,0.0,0.0,0.0,0.0,0.0,0.0,0.0,0.0,0.0,0.0,0.03180735930800438,0.019291793927550316,-0.021896062418818474,0.0,0.0,0.0,0.0,0.0,0.0,0.0,0.0,0.0,-0.8005128502845764,0.06641025841236115,9.852051734924316,0.0,0.0,0.0,0.0,0.0,0.0,0.0,0.0,0.0
1646350918.2116756,10482,1646350918,211366337,,0.0,0.0,0.0,0.0,0.0,0.0,0.0,0.0,0.0,0.0,0.0,0.0,0.0,0.050982117652893066,0.03740128502249718,0.010061867535114288,0.0,0.0,0.0,0.0,0.0,0.0,0.0,0.0,0.0,-0.8310256600379944,-0.14538460969924927,9.870000839233398,0.0,0.0,0.0,0.0,0.0,0.0,0.0,0.0,0.0
1646350918.2139714,10483,1646350918,213544957,,0.0,0.0,0.0,0.0,0.0,0.0,0.0,0.0,0.0,0.0,0.0,0.0,0.0,0.044590532779693604,0.04592340067028999,-0.024026591330766678,0.0,0.0,0.0,0.0,0.0,0.0,0.0,0.0,0.0,-0.9405128359794617,0.07000000029802322,10.069230079650879,0.0,0.0,0.0,0.0,0.0,0.0,0.0,0.0,0.0
1646350918.2161953,10484,1646350918,215782943,,0.0,0.0,0.0,0.0,0.0,0.0,0.0,0.0,0.0,0.0,0.0,0.0,0.0,0.0541779100894928,0.019291793927550316,-0.008047626353800297,0.0,0.0,0.0,0.0,0.0,0.0,0.0,0.0,0.0,-0.9961538314819336,-0.07897436618804932,9.783845901489258,0.0,0.0,0.0,0.0,0.0,0.0,0.0,0.0,0.0
1646350918.2183235,10485,1646350918,218055841,,0.0,0.0,0.0,0.0,0.0,0.0,0.0,0.0,0.0,0.0,0.0,0.0,0.0,0.04246000573039055,0.03953181207180023,-0.018700269982218742,0.0,0.0,0.0,0.0,0.0,0.0,0.0,0.0,0.0,-0.9153846502304077,0.012564103119075298,10.11230754852295,0.0,0.0,0.0,0.0,0.0,0.0,0.0,0.0,0.0
1646350918.2205603,10486,1646350918,220283955,,0.0,0.0,0.0,0.0,0.0,0.0,0.0,0.0,0.0,0.0,0.0,0.0,0.0,0.03926420584321022,0.041662342846393585,-0.013373949564993382,0.0,0.0,0.0,0.0,0.0,0.0,0.0,0.0,0.0,-0.8776923418045044,0.16871795058250427,10.010000228881836,0.0,0.0,0.0,0.0,0.0,0.0,0.0,0.0,0.0
1646350918.2229638,10487,1646350918,222550569,,0.0,0.0,0.0,0.0,0.0,0.0,0.0,0.0,0.0,0.0,0.0,0.0,0.0,0.025415774434804916,0.017161265015602112,-0.006982361897826195,0.0,0.0,0.0,0.0,0.0,0.0,0.0,0.0,0.0,-0.7358974814414978,0.012564103119075298,9.85564136505127,0.0,0.0,0.0,0.0,0.0,0.0,0.0,0.0,0.0
1646350918.225014,10488,1646350918,224737843,,0.0,0.0,0.0,0.0,0.0,0.0,0.0,0.0,0.0,0.0,0.0,0.0,0.0,0.008371543139219284,0.022487586364150047,-0.0101781552657485,0.0,0.0,0.0,0.0,0.0,0.0,0.0,0.0,0.0,-0.7305128574371338,-0.03769230842590332,9.816153526306152,0.0,0.0,0.0,0.0,0.0,0.0,0.0,0.0,0.0
1646350918.2272227,10489,1646350918,226912931,,0.0,0.0,0.0,0.0,0.0,0.0,0.0,0.0,0.0,0.0,0.0,0.0,0.0,-0.00015057262498885393,0.031009702011942863,-0.021896062418818474,0.0,0.0,0.0,0.0,0.0,0.0,0.0,0.0,0.0,-0.6658974885940552,0.10948718339204788,9.882563591003418,0.0,0.0,0.0,0.0,0.0,0.0,0.0,0.0,0.0
1646350918.229422,10490,1646350918,229126889,,0.0,0.0,0.0,0.0,0.0,0.0,0.0,0.0,0.0,0.0,0.0,0.0,0.0,-0.0012158364988863468,0.012900206260383129,0.0036702812649309635,0.0,0.0,0.0,0.0,0.0,0.0,0.0,0.0,0.0,-0.6766666769981384,-0.14538460969924927,9.798205375671387,0.0,0.0,0.0,0.0,0.0,0.0,0.0,0.0,0.0
1646350918.2316074,10491,1646350918,231316005,,0.0,0.0,0.0,0.0,0.0,0.0,0.0,0.0,0.0,0.0,0.0,0.0,0.0,-0.0012158364988863468,0.015030735172331333,-0.011243419721722603,0.0,0.0,0.0,0.0,0.0,0.0,0.0,0.0,0.0,-1.024871826171875,-0.15794873237609863,9.64384651184082,0.0,0.0,0.0,0.0,0.0,0.0,0.0,0.0,0.0
1646350918.2339134,10492,1646350918,233587859,,0.0,0.0,0.0,0.0,0.0,0.0,0.0,0.0,0.0,0.0,0.0,0.0,0.0,0.006241013761609793,0.00544335599988699,-0.020830798894166946,0.0,0.0,0.0,0.0,0.0,0.0,0.0,0.0,0.0,-0.901025652885437,0.01794871874153614,9.835898399353027,0.0,0.0,0.0,0.0,0.0,0.0,0.0,0.0,0.0
1646350918.2361376,10493,1646350918,235805685,,0.0,0.0,0.0,0.0,0.0,0.0,0.0,0.0,0.0,0.0,0.0,0.0,0.0,-0.024651652202010155,0.009704413823783398,-0.016569742932915688,0.0,0.0,0.0,0.0,0.0,0.0,0.0,0.0,0.0,-1.127179503440857,-0.2064102590084076,9.59000015258789,0.0,0.0,0.0,0.0,0.0,0.0,0.0,0.0,0.0
1646350918.2384145,10494,1646350918,238035589,,0.0,0.0,0.0,0.0,0.0,0.0,0.0,0.0,0.0,0.0,0.0,0.0,0.0,-0.008672687225043774,-0.0020134944934397936,-0.012308684177696705,0.0,0.0,0.0,0.0,0.0,0.0,0.0,0.0,0.0,-0.8830769658088684,0.3302564322948456,9.816153526306152,0.0,0.0,0.0,0.0,0.0,0.0,0.0,0.0,0.0
1646350918.2413995,10495,1646350918,240246986,,0.0,0.0,0.0,0.0,0.0,0.0,0.0,0.0,0.0,0.0,0.0,0.0,0.0,-0.008672687225043774,0.013965470716357231,-0.008047626353800297,0.0,0.0,0.0,0.0,0.0,0.0,0.0,0.0,0.0,-0.7502564191818237,-0.14897435903549194,9.575640678405762,0.0,0.0,0.0,0.0,0.0,0.0,0.0,0.0,0.0
1646350918.2425783,10496,1646350918,242416586,,0.0,0.0,0.0,0.0,0.0,0.0,0.0,0.0,0.0,0.0,0.0,0.0,0.0,0.004110485315322876,0.006508619990199804,0.0015397525858134031,0.0,0.0,0.0,0.0,0.0,0.0,0.0,0.0,0.0,-0.787948727607727,0.2064102590084076,9.539743423461914,0.0,0.0,0.0,0.0,0.0,0.0,0.0,0.0,0.0
1646350918.2449124,10497,1646350918,244594301,,0.0,0.0,0.0,0.0,0.0,0.0,0.0,0.0,0.0,0.0,0.0,0.0,0.0,-0.007607422769069672,-0.005209287628531456,-0.0005907765007577837,0.0,0.0,0.0,0.0,0.0,0.0,0.0,0.0,0.0,-0.9494872093200684,0.10410256683826447,9.704872131347656,0.0,0.0,0.0,0.0,0.0,0.0,0.0,0.0,0.0
1646350918.2471259,10498,1646350918,246785152,,0.0,0.0,0.0,0.0,0.0,0.0,0.0,0.0,0.0,0.0,0.0,0.0,0.0,0.013697865419089794,0.003312827320769429,0.012192396447062492,0.0,0.0,0.0,0.0,0.0,0.0,0.0,0.0,0.0,-0.8435897827148438,-0.12564103305339813,9.286666870117188,0.0,0.0,0.0,0.0,0.0,0.0,0.0,0.0,0.0
1646350918.2493136,10499,1646350918,248954777,,0.0,0.0,0.0,0.0,0.0,0.0,0.0,0.0,0.0,0.0,0.0,0.0,0.0,0.005175749771296978,0.007573884446173906,-0.015504478476941586,0.0,0.0,0.0,0.0,0.0,0.0,0.0,0.0,0.0,-1.0302563905715942,0.20102564990520477,9.69410228729248,0.0,0.0,0.0,0.0,0.0,0.0,0.0,0.0,0.0
1646350918.2513924,10500,1646350918,251126875,,0.0,0.0,0.0,0.0,0.0,0.0,0.0,0.0,0.0,0.0,0.0,0.0,0.0,0.004110485315322876,0.02887917309999466,0.008996603079140186,0.0,0.0,0.0,0.0,0.0,0.0,0.0,0.0,0.0,-0.6784615516662598,-0.0412820540368557,9.292051315307617,0.0,0.0,0.0,0.0,0.0,0.0,0.0,0.0,0.0
1646350918.2536607,10501,1646350918,253302150,,0.0,0.0,0.0,0.0,0.0,0.0,0.0,0.0,0.0,0.0,0.0,0.0,0.0,0.030742093920707703,0.011834941804409027,-0.015504478476941586,0.0,0.0,0.0,0.0,0.0,0.0,0.0,0.0,0.0,-0.7017949223518372,0.25487178564071655,9.826923370361328,0.0,0.0,0.0,0.0,0.0,0.0,0.0,0.0,0.0
1646350918.2556636,10502,1646350918,255470281,,0.0,0.0,0.0,0.0,0.0,0.0,0.0,0.0,0.0,0.0,0.0,0.0,0.0,-0.016129538416862488,0.011834941804409027,0.03136715292930603,0.0,0.0,0.0,0.0,0.0,0.0,0.0,0.0,0.0,-0.6605128645896912,-0.21717949211597443,9.423076629638672,0.0,0.0,0.0,0.0,0.0,0.0,0.0,0.0,0.0
1646350918.2580369,10503,1646350918,257667847,,0.0,0.0,0.0,0.0,0.0,0.0,0.0,0.0,0.0,0.0,0.0,0.0,0.0,0.025415774434804916,0.01822652854025364,-0.0016560404328629375,0.0,0.0,0.0,0.0,0.0,0.0,0.0,0.0,0.0,-0.8328205347061157,0.12743589282035828,9.751538276672363,0.0,0.0,0.0,0.0,0.0,0.0,0.0,0.0,0.0
1646350918.2602744,10504,1646350918,259904241,,0.0,0.0,0.0,0.0,0.0,0.0,0.0,0.0,0.0,0.0,0.0,0.0,0.0,0.014763129875063896,0.00224756239913404,-0.004851834382861853,0.0,0.0,0.0,0.0,0.0,0.0,0.0,0.0,0.0,-0.9279487133026123,-0.2710256576538086,9.356666564941406,0.0,0.0,0.0,0.0,0.0,0.0,0.0,0.0,0.0
1646350918.262607,10505,1646350918,262191735,,0.0,0.0,0.0,0.0,0.0,0.0,0.0,0.0,0.0,0.0,0.0,0.0,0.0,0.0009146920638158917,0.008639149367809296,-0.006982361897826195,0.0,0.0,0.0,0.0,0.0,0.0,0.0,0.0,0.0,-0.7664102911949158,0.2979487180709839,9.518204689025879,0.0,0.0,0.0,0.0,0.0,0.0,0.0,0.0,0.0
1646350918.2648537,10506,1646350918,264431226,,0.0,0.0,0.0,0.0,0.0,0.0,0.0,0.0,0.0,0.0,0.0,0.0,0.0,-0.00015057262498885393,-0.009470346383750439,0.0026050168089568615,0.0,0.0,0.0,0.0,0.0,0.0,0.0,0.0,0.0,-0.9028205275535583,0.12923076748847961,9.59000015258789,0.0,0.0,0.0,0.0,0.0,0.0,0.0,0.0,0.0
1646350918.266949,10507,1646350918,266612985,,0.0,0.0,0.0,0.0,0.0,0.0,0.0,0.0,0.0,0.0,0.0,0.0,0.0,-0.007607422769069672,0.00544335599988699,0.026040835306048393,0.0,0.0,0.0,0.0,0.0,0.0,0.0,0.0,0.0,-1.0841026306152344,-0.23692308366298676,9.245384216308594,0.0,0.0,0.0,0.0,0.0,0.0,0.0,0.0,0.0
1646350918.2692008,10508,1646350918,268837991,,0.0,0.0,0.0,0.0,0.0,0.0,0.0,0.0,0.0,0.0,0.0,0.0,0.0,0.004110485315322876,0.012900206260383129,-0.0101781552657485,0.0,0.0,0.0,0.0,0.0,0.0,0.0,0.0,0.0,-0.7394872307777405,0.1148717999458313,9.697691917419434,0.0,0.0,0.0,0.0,0.0,0.0,0.0,0.0,0.0
1646350918.2712827,10509,1646350918,271006411,,0.0,0.0,0.0,0.0,0.0,0.0,0.0,0.0,0.0,0.0,0.0,0.0,0.0,0.006241013761609793,-0.0020134944934397936,0.021779777482151985,0.0,0.0,0.0,0.0,0.0,0.0,0.0,0.0,0.0,-0.9961538314819336,-0.2064102590084076,9.272307395935059,0.0,0.0,0.0,0.0,0.0,0.0,0.0,0.0,0.0
1646350918.2735257,10510,1646350918,273230975,,0.0,0.0,0.0,0.0,0.0,0.0,0.0,0.0,0.0,0.0,0.0,0.0,0.0,0.01689365692436695,0.007573884446173906,-0.0037865692283958197,0.0,0.0,0.0,0.0,0.0,0.0,0.0,0.0,0.0,-0.9028205275535583,0.17230769991874695,9.710256576538086,0.0,0.0,0.0,0.0,0.0,0.0,0.0,0.0,0.0
1646350918.2758222,10511,1646350918,275430809,,0.0,0.0,0.0,0.0,0.0,0.0,0.0,0.0,0.0,0.0,0.0,0.0,0.0,-0.027847446501255035,-0.015861930325627327,0.013257660903036594,0.0,0.0,0.0,0.0,0.0,0.0,0.0,0.0,0.0,-0.6264103055000305,-0.005384615622460842,9.498461723327637,0.0,0.0,0.0,0.0,0.0,0.0,0.0,0.0,0.0
1646350918.27803,10512,1646350918,277644434,,0.0,0.0,0.0,0.0,0.0,0.0,0.0,0.0,0.0,0.0,0.0,0.0,0.0,0.007306278217583895,0.00011703448399202898,0.0058008101768791676,0.0,0.0,0.0,0.0,0.0,0.0,0.0,0.0,0.0,-0.7628205418586731,0.27282050251960754,9.602563858032227,0.0,0.0,0.0,0.0,0.0,0.0,0.0,0.0,0.0
1646350918.280128,10513,1646350918,279879840,,0.0,0.0,0.0,0.0,0.0,0.0,0.0,0.0,0.0,0.0,0.0,0.0,0.0,0.001979956403374672,0.013965470716357231,0.022845041006803513,0.0,0.0,0.0,0.0,0.0,0.0,0.0,0.0,0.0,-0.5887179374694824,-0.12923076748847961,9.449999809265137,0.0,0.0,0.0,0.0,0.0,0.0,0.0,0.0,0.0
1646350918.2828896,10514,1646350918,282055521,,0.0,0.0,0.0,0.0,0.0,0.0,0.0,0.0,0.0,0.0,0.0,0.0,0.0,-0.013999010436236858,-0.005209287628531456,-0.0101781552657485,0.0,0.0,0.0,0.0,0.0,0.0,0.0,0.0,0.0,-0.7394872307777405,0.2656410336494446,9.769487380981445,0.0,0.0,0.0,0.0,0.0,0.0,0.0,0.0,0.0
1646350918.2845092,10515,1646350918,284249786,,0.0,0.0,0.0,0.0,0.0,0.0,0.0,0.0,0.0,0.0,0.0,0.0,0.0,0.006241013761609793,0.00224756239913404,-0.0016560404328629375,0.0,0.0,0.0,0.0,0.0,0.0,0.0,0.0,0.0,-0.859743595123291,0.1382051259279251,10.035127639770508,0.0,0.0,0.0,0.0,0.0,0.0,0.0,0.0,0.0
1646350918.2867823,10516,1646350918,286442137,,0.0,0.0,0.0,0.0,0.0,0.0,0.0,0.0,0.0,0.0,0.0,0.0,0.0,-0.0012158364988863468,-0.01799245923757553,-0.005917098838835955,0.0,0.0,0.0,0.0,0.0,0.0,0.0,0.0,0.0,-0.9871795177459717,-0.2117948830127716,9.286666870117188,0.0,0.0,0.0,0.0,0.0,0.0,0.0,0.0,0.0
1646350918.2890098,10517,1646350918,288687404,,0.0,0.0,0.0,0.0,0.0,0.0,0.0,0.0,0.0,0.0,0.0,0.0,0.0,-0.003346365410834551,0.012900206260383129,0.0015397525858134031,0.0,0.0,0.0,0.0,0.0,0.0,0.0,0.0,0.0,-0.8633333444595337,0.19025641679763794,9.916666030883789,0.0,0.0,0.0,0.0,0.0,0.0,0.0,0.0,0.0
1646350918.291188,10518,1646350918,290867778,,0.0,0.0,0.0,0.0,0.0,0.0,0.0,0.0,0.0,0.0,0.0,0.0,0.0,0.004110485315322876,-0.03184089809656143,0.02071451209485531,0.0,0.0,0.0,0.0,0.0,0.0,0.0,0.0,0.0,-0.6802564263343811,-0.19384616613388062,9.651025772094727,0.0,0.0,0.0,0.0,0.0,0.0,0.0,0.0,0.0
1646350918.2941248,10519,1646350918,293192131,,0.0,0.0,0.0,0.0,0.0,0.0,0.0,0.0,0.0,0.0,0.0,0.0,0.0,0.022219980135560036,-0.003078758716583252,-0.031483445316553116,0.0,0.0,0.0,0.0,0.0,0.0,0.0,0.0,0.0,-0.8256410360336304,0.0825641080737114,10.139230728149414,0.0,0.0,0.0,0.0,0.0,0.0,0.0,0.0,0.0
1646350918.2956777,10520,1646350918,295368906,,0.0,0.0,0.0,0.0,0.0,0.0,0.0,0.0,0.0,0.0,0.0,0.0,0.0,-0.013999010436236858,0.004378091543912888,-0.004851834382861853,0.0,0.0,0.0,0.0,0.0,0.0,0.0,0.0,0.0,-0.8992307782173157,0.06461538374423981,10.001025199890137,0.0,0.0,0.0,0.0,0.0,0.0,0.0,0.0,0.0
1646350918.297829,10521,1646350918,297535728,,0.0,0.0,0.0,0.0,0.0,0.0,0.0,0.0,0.0,0.0,0.0,0.0,0.0,0.008371543139219284,-0.005209287628531456,0.0036702812649309635,0.0,0.0,0.0,0.0,0.0,0.0,0.0,0.0,0.0,-0.7556410431861877,-0.010769231244921684,9.713846206665039,0.0,0.0,0.0,0.0,0.0,0.0,0.0,0.0,0.0
1646350918.3000298,10522,1646350918,299719847,,0.0,0.0,0.0,0.0,0.0,0.0,0.0,0.0,0.0,0.0,0.0,0.0,0.0,0.006241013761609793,-0.015861930325627327,-0.017635004594922066,0.0,0.0,0.0,0.0,0.0,0.0,0.0,0.0,0.0,-0.8974359035491943,0.17589744925498962,9.859230041503906,0.0,0.0,0.0,0.0,0.0,0.0,0.0,0.0,0.0
1646350918.3022375,10523,1646350918,301891532,,0.0,0.0,0.0,0.0,0.0,0.0,0.0,0.0,0.0,0.0,0.0,0.0,0.0,-0.00654215831309557,-0.0020134944934397936,0.02710609696805477,0.0,0.0,0.0,0.0,0.0,0.0,0.0,0.0,0.0,-0.6443589925765991,0.05384615436196327,9.780256271362305,0.0,0.0,0.0,0.0,0.0,0.0,0.0,0.0,0.0
1646350918.3047569,10524,1646350918,304128699,,0.0,0.0,0.0,0.0,0.0,0.0,0.0,0.0,0.0,0.0,0.0,0.0,0.0,-0.003346365410834551,0.001182297826744616,0.01112713199108839,0.0,0.0,0.0,0.0,0.0,0.0,0.0,0.0,0.0,-0.8094872236251831,0.07538461685180664,9.870000839233398,0.0,0.0,0.0,0.0,0.0,0.0,0.0,0.0,0.0
1646350918.3066628,10525,1646350918,306309974,,0.0,0.0,0.0,0.0,0.0,0.0,0.0,0.0,0.0,0.0,0.0,0.0,0.0,-0.002281100954860449,-0.009470346383750439,0.010061867535114288,0.0,0.0,0.0,0.0,0.0,0.0,0.0,0.0,0.0,-0.7251282334327698,-0.12205128371715546,9.794615745544434,0.0,0.0,0.0,0.0,0.0,0.0,0.0,0.0,0.0
1646350918.3088849,10526,1646350918,308503958,,0.0,0.0,0.0,0.0,0.0,0.0,0.0,0.0,0.0,0.0,0.0,0.0,0.0,-0.009737951681017876,-0.024384047836065292,-0.015504478476941586,0.0,0.0,0.0,0.0,0.0,0.0,0.0,0.0,0.0,-0.8166666626930237,0.1471794843673706,10.263076782226562,0.0,0.0,0.0,0.0,0.0,0.0,0.0,0.0,0.0
1646350918.3109717,10527,1646350918,310678741,,0.0,0.0,0.0,0.0,0.0,0.0,0.0,0.0,0.0,0.0,0.0,0.0,0.0,-0.0012158364988863468,-0.012666137889027596,0.0058008101768791676,0.0,0.0,0.0,0.0,0.0,0.0,0.0,0.0,0.0,-0.8364102840423584,-0.1471794843673706,9.740769386291504,0.0,0.0,0.0,0.0,0.0,0.0,0.0,0.0,0.0
1646350918.313314,10528,1646350918,312844769,,0.0,0.0,0.0,0.0,0.0,0.0,0.0,0.0,0.0,0.0,0.0,0.0,0.0,0.013697865419089794,-0.010535608977079391,0.00686607463285327,0.0,0.0,0.0,0.0,0.0,0.0,0.0,0.0,0.0,-0.7125641107559204,0.3482051491737366,10.0369234085083,0.0,0.0,0.0,0.0,0.0,0.0,0.0,0.0,0.0
1646350918.3153222,10529,1646350918,315030903,,0.0,0.0,0.0,0.0,0.0,0.0,0.0,0.0,0.0,0.0,0.0,0.0,0.0,-0.01186848059296608,-0.03716721758246422,-0.0037865692283958197,0.0,0.0,0.0,0.0,0.0,0.0,0.0,0.0,0.0,-0.5079486966133118,-0.13641025125980377,9.769487380981445,0.0,0.0,0.0,0.0,0.0,0.0,0.0,0.0,0.0
1646350918.317644,10530,1646350918,317220219,,0.0,0.0,0.0,0.0,0.0,0.0,0.0,0.0,0.0,0.0,0.0,0.0,0.0,-0.02571691758930683,-0.0286451056599617,0.03775873780250549,0.0,0.0,0.0,0.0,0.0,0.0,0.0,0.0,0.0,-0.7125641107559204,0.2925640940666199,10.187692642211914,0.0,0.0,0.0,0.0,0.0,0.0,0.0,0.0,0.0
1646350918.319851,10531,1646350918,319410469,,0.0,0.0,0.0,0.0,0.0,0.0,0.0,0.0,0.0,0.0,0.0,0.0,0.0,-0.00441163033246994,-0.013731402345001698,-0.02296132780611515,0.0,0.0,0.0,0.0,0.0,0.0,0.0,0.0,0.0,-0.787948727607727,0.06820512562990189,10.040512084960938,0.0,0.0,0.0,0.0,0.0,0.0,0.0,0.0,0.0
1646350918.3219004,10532,1646350918,321611067,,0.0,0.0,0.0,0.0,0.0,0.0,0.0,0.0,0.0,0.0,0.0,0.0,0.0,0.006241013761609793,-0.015861930325627327,-0.0027213047724217176,0.0,0.0,0.0,0.0,0.0,0.0,0.0,0.0,0.0,-0.8920512795448303,-0.18666666746139526,9.796409606933594,0.0,0.0,0.0,0.0,0.0,0.0,0.0,0.0,0.0
1646350918.3250625,10533,1646350918,323909315,,0.0,0.0,0.0,0.0,0.0,0.0,0.0,0.0,0.0,0.0,0.0,0.0,0.0,-0.002281100954860449,-0.03397142514586449,-0.016569742932915688,0.0,0.0,0.0,0.0,0.0,0.0,0.0,0.0,0.0,-0.6838461756706238,0.023333333432674408,9.89871883392334,0.0,0.0,0.0,0.0,0.0,0.0,0.0,0.0,0.0
1646350918.3263366,10534,1646350918,326085395,,0.0,0.0,0.0,0.0,0.0,0.0,0.0,0.0,0.0,0.0,0.0,0.0,0.0,0.009436807595193386,-0.010535608977079391,0.0164534542709589,0.0,0.0,0.0,0.0,0.0,0.0,0.0,0.0,0.0,-0.7000000476837158,-0.20102564990520477,9.843076705932617,0.0,0.0,0.0,0.0,0.0,0.0,0.0,0.0,0.0
1646350918.3284895,10535,1646350918,328258600,,0.0,0.0,0.0,0.0,0.0,0.0,0.0,0.0,0.0,0.0,0.0,0.0,0.0,0.017958922311663628,-0.02544931322336197,0.008996603079140186,0.0,0.0,0.0,0.0,0.0,0.0,0.0,0.0,0.0,-0.6928205490112305,0.23333333432674408,9.918461799621582,0.0,0.0,0.0,0.0,0.0,0.0,0.0,0.0,0.0
1646350918.3307228,10536,1646350918,330448084,,0.0,0.0,0.0,0.0,0.0,0.0,0.0,0.0,0.0,0.0,0.0,0.0,0.0,-0.008672687225043774,-0.020122988149523735,0.0036702812649309635,0.0,0.0,0.0,0.0,0.0,0.0,0.0,0.0,0.0,-0.3500000238418579,-0.10230769217014313,9.835898399353027,0.0,0.0,0.0,0.0,0.0,0.0,0.0,0.0,0.0
1646350918.332944,10537,1646350918,332694285,,0.0,0.0,0.0,0.0,0.0,0.0,0.0,0.0,0.0,0.0,0.0,0.0,0.0,0.015828393399715424,-0.009470346383750439,-0.0005907765007577837,0.0,0.0,0.0,0.0,0.0,0.0,0.0,0.0,0.0,-0.6174359321594238,0.32487180829048157,10.035127639770508,0.0,0.0,0.0,0.0,0.0,0.0,0.0,0.0,0.0
1646350918.335194,10538,1646350918,334862722,,0.0,0.0,0.0,0.0,0.0,0.0,0.0,0.0,0.0,0.0,0.0,0.0,0.0,0.007306278217583895,0.00544335599988699,0.022845041006803513,0.0,0.0,0.0,0.0,0.0,0.0,0.0,0.0,0.0,-0.3500000238418579,-0.28179487586021423,9.667179107666016,0.0,0.0,0.0,0.0,0.0,0.0,0.0,0.0,0.0
1646350918.337461,10539,1646350918,337050794,,0.0,0.0,0.0,0.0,0.0,0.0,0.0,0.0,0.0,0.0,0.0,0.0,0.0,-0.002281100954860449,-0.007339817471802235,0.0026050168089568615,0.0,0.0,0.0,0.0,0.0,0.0,0.0,0.0,0.0,-0.5725641250610352,0.06102564185857773,9.721025466918945,0.0,0.0,0.0,0.0,0.0,0.0,0.0,0.0,0.0
1646350918.3395169,10540,1646350918,339271075,,0.0,0.0,0.0,0.0,0.0,0.0,0.0,0.0,0.0,0.0,0.0,0.0,0.0,-0.009737951681017876,-0.02544931322336197,0.0036702812649309635,0.0,0.0,0.0,0.0,0.0,0.0,0.0,0.0,0.0,-0.5905128121376038,0.04307692497968674,10.00820541381836,0.0,0.0,0.0,0.0,0.0,0.0,0.0,0.0,0.0
1646350918.3416078,10541,1646350918,341413131,,0.0,0.0,0.0,0.0,0.0,0.0,0.0,0.0,0.0,0.0,0.0,0.0,0.0,0.017958922311663628,-0.006274553015828133,0.000474488188046962,0.0,0.0,0.0,0.0,0.0,0.0,0.0,0.0,0.0,-0.7592307925224304,-0.1974359005689621,9.625897407531738,0.0,0.0,0.0,0.0,0.0,0.0,0.0,0.0,0.0
1646350918.3438675,10542,1646350918,343552458,,0.0,0.0,0.0,0.0,0.0,0.0,0.0,0.0,0.0,0.0,0.0,0.0,0.0,0.005175749771296978,-0.027579842135310173,-0.0005907765007577837,0.0,0.0,0.0,0.0,0.0,0.0,0.0,0.0,0.0,-0.4648717939853668,0.2207692414522171,10.080000877380371,0.0,0.0,0.0,0.0,0.0,0.0,0.0,0.0,0.0
1646350918.3461087,10543,1646350918,345764882,,0.0,0.0,0.0,0.0,0.0,0.0,0.0,0.0,0.0,0.0,0.0,0.0,0.0,0.005175749771296978,-0.026514576748013496,0.029236625880002975,0.0,0.0,0.0,0.0,0.0,0.0,0.0,0.0,0.0,-0.8992307782173157,-0.16333334147930145,9.642051696777344,0.0,0.0,0.0,0.0,0.0,0.0,0.0,0.0,0.0
1646350918.3483257,10544,1646350918,347982996,,0.0,0.0,0.0,0.0,0.0,0.0,0.0,0.0,0.0,0.0,0.0,0.0,0.0,-0.016129538416862488,-0.020122988149523735,0.008996603079140186,0.0,0.0,0.0,0.0,0.0,0.0,0.0,0.0,0.0,-0.6264103055000305,0.03589743748307228,10.033333778381348,0.0,0.0,0.0,0.0,0.0,0.0,0.0,0.0,0.0
1646350918.3505576,10545,1646350918,350163244,,0.0,0.0,0.0,0.0,0.0,0.0,0.0,0.0,0.0,0.0,0.0,0.0,0.0,0.010502072051167488,-0.04036301001906395,0.0058008101768791676,0.0,0.0,0.0,0.0,0.0,0.0,0.0,0.0,0.0,-0.8741025924682617,-0.20102564990520477,9.577435493469238,0.0,0.0,0.0,0.0,0.0,0.0,0.0,0.0,0.0
1646350918.352665,10546,1646350918,352342478,,0.0,0.0,0.0,0.0,0.0,0.0,0.0,0.0,0.0,0.0,0.0,0.0,0.0,0.005175749771296978,-0.024384047836065292,0.033497683703899384,0.0,0.0,0.0,0.0,0.0,0.0,0.0,0.0,0.0,-0.5635897517204285,0.23692308366298676,9.692307472229004,0.0,0.0,0.0,0.0,0.0,0.0,0.0,0.0,0.0
1646350918.3548722,10547,1646350918,354524476,,0.0,0.0,0.0,0.0,0.0,0.0,0.0,0.0,0.0,0.0,0.0,0.0,0.0,0.0286115650087595,-0.02225351706147194,-0.02722238563001156,0.0,0.0,0.0,0.0,0.0,0.0,0.0,0.0,0.0,-0.6210256814956665,0.05743589997291565,9.731794357299805,0.0,0.0,0.0,0.0,0.0,0.0,0.0,0.0,0.0
1646350918.3570755,10548,1646350918,356721114,,0.0,0.0,0.0,0.0,0.0,0.0,0.0,0.0,0.0,0.0,0.0,0.0,0.0,0.033937886357307434,-0.04781986027956009,0.02710609696805477,0.0,0.0,0.0,0.0,0.0,0.0,0.0,0.0,0.0,-0.5707692503929138,0.2476923167705536,9.776666641235352,0.0,0.0,0.0,0.0,0.0,0.0,0.0,0.0,0.0
1646350918.359346,10549,1646350918,358986303,,0.0,0.0,0.0,0.0,0.0,0.0,0.0,0.0,0.0,0.0,0.0,0.0,0.0,0.022219980135560036,-0.03929774835705757,-0.0101781552657485,0.0,0.0,0.0,0.0,0.0,0.0,0.0,0.0,0.0,-0.5097435712814331,-0.01974359154701233,9.49666690826416,0.0,0.0,0.0,0.0,0.0,0.0,0.0,0.0,0.0
1646350918.361637,10550,1646350918,361211377,,0.0,0.0,0.0,0.0,0.0,0.0,0.0,0.0,0.0,0.0,0.0,0.0,0.0,0.04139474034309387,-0.038232482969760895,0.0026050168089568615,0.0,0.0,0.0,0.0,0.0,0.0,0.0,0.0,0.0,-0.7305128574371338,-0.03948718309402466,9.59000015258789,0.0,0.0,0.0,0.0,0.0,0.0,0.0,0.0,0.0
1646350918.3637133,10551,1646350918,363405643,,0.0,0.0,0.0,0.0,0.0,0.0,0.0,0.0,0.0,0.0,0.0,0.0,0.0,0.02435050904750824,-0.04675459861755371,0.008996603079140186,0.0,0.0,0.0,0.0,0.0,0.0,0.0,0.0,0.0,-0.7412821054458618,0.1471794843673706,9.925641059875488,0.0,0.0,0.0,0.0,0.0,0.0,0.0,0.0,0.0
1646350918.3667603,10552,1646350918,365579804,,0.0,0.0,0.0,0.0,0.0,0.0,0.0,0.0,0.0,0.0,0.0,0.0,0.0,0.010502072051167488,-0.0286451056599617,0.0281713604927063,0.0,0.0,0.0,0.0,0.0,0.0,0.0,0.0,0.0,-0.43435898423194885,-0.08615384995937347,9.396153450012207,0.0,0.0,0.0,0.0,0.0,0.0,0.0,0.0,0.0
1646350918.3681972,10553,1646350918,367754365,,0.0,0.0,0.0,0.0,0.0,0.0,0.0,0.0,0.0,0.0,0.0,0.0,0.0,0.009436807595193386,-0.041428275406360626,0.01112713199108839,0.0,0.0,0.0,0.0,0.0,0.0,0.0,0.0,0.0,-0.6748718023300171,0.2889743745326996,10.018974304199219,0.0,0.0,0.0,0.0,0.0,0.0,0.0,0.0,0.0
1646350918.3703198,10554,1646350918,369995543,,0.0,0.0,0.0,0.0,0.0,0.0,0.0,0.0,0.0,0.0,0.0,0.0,0.0,-0.005476894788444042,-0.027579842135310173,0.018583983182907104,0.0,0.0,0.0,0.0,0.0,0.0,0.0,0.0,0.0,-0.6389743685722351,-0.24589744210243225,9.685128211975098,0.0,0.0,0.0,0.0,0.0,0.0,0.0,0.0,0.0
1646350918.3725622,10555,1646350918,372213312,,0.0,0.0,0.0,0.0,0.0,0.0,0.0,0.0,0.0,0.0,0.0,0.0,0.0,0.004110485315322876,-0.01799245923757553,0.0058008101768791676,0.0,0.0,0.0,0.0,0.0,0.0,0.0,0.0,0.0,-0.7125641107559204,0.2476923167705536,10.211026191711426,0.0,0.0,0.0,0.0,0.0,0.0,0.0,0.0,0.0
1646350918.3748403,10556,1646350918,374475613,,0.0,0.0,0.0,0.0,0.0,0.0,0.0,0.0,0.0,0.0,0.0,0.0,0.0,-0.002281100954860449,-0.023318784311413765,0.013257660903036594,0.0,0.0,0.0,0.0,0.0,0.0,0.0,0.0,0.0,-0.8005128502845764,0.09692308306694031,9.961538314819336,0.0,0.0,0.0,0.0,0.0,0.0,0.0,0.0,0.0
1646350918.3771071,10557,1646350918,376749978,,0.0,0.0,0.0,0.0,0.0,0.0,0.0,0.0,0.0,0.0,0.0,0.0,0.0,-0.021455859765410423,-0.038232482969760895,0.03456294909119606,0.0,0.0,0.0,0.0,0.0,0.0,0.0,0.0,0.0,-0.7143589854240417,-0.17589744925498962,9.661794662475586,0.0,0.0,0.0,0.0,0.0,0.0,0.0,0.0,0.0
1646350918.3793077,10558,1646350918,378979831,,0.0,0.0,0.0,0.0,0.0,0.0,0.0,0.0,0.0,0.0,0.0,0.0,0.0,-0.023586388677358627,-0.03610195219516754,-0.012308684177696705,0.0,0.0,0.0,0.0,0.0,0.0,0.0,0.0,0.0,-0.8794872164726257,0.06461538374423981,10.10692310333252,0.0,0.0,0.0,0.0,0.0,0.0,0.0,0.0,0.0
1646350918.3819468,10559,1646350918,381166123,,0.0,0.0,0.0,0.0,0.0,0.0,0.0,0.0,0.0,0.0,0.0,0.0,0.0,-0.04702220484614372,-0.06060304120182991,0.007931338623166084,0.0,0.0,0.0,0.0,0.0,0.0,0.0,0.0,0.0,-0.5402564406394958,0.012564103119075298,9.830512046813965,0.0,0.0,0.0,0.0,0.0,0.0,0.0,0.0,0.0
1646350918.3836565,10560,1646350918,383392296,,0.0,0.0,0.0,0.0,0.0,0.0,0.0,0.0,0.0,0.0,0.0,0.0,0.0,-0.05874011293053627,-0.04355880245566368,0.0164534542709589,0.0,0.0,0.0,0.0,0.0,0.0,0.0,0.0,0.0,-0.6766666769981384,0.2997435927391052,10.05666732788086,0.0,0.0,0.0,0.0,0.0,0.0,0.0,0.0,0.0
1646350918.38582,10561,1646350918,385563419,,0.0,0.0,0.0,0.0,0.0,0.0,0.0,0.0,0.0,0.0,0.0,0.0,0.0,-0.03530430048704147,-0.06273356825113297,0.014322925359010696,0.0,0.0,0.0,0.0,0.0,0.0,0.0,0.0,0.0,-0.5564102530479431,-0.06102564185857773,9.733589172363281,0.0,0.0,0.0,0.0,0.0,0.0,0.0,0.0,0.0
1646350918.3881173,10562,1646350918,387801104,,0.0,0.0,0.0,0.0,0.0,0.0,0.0,0.0,0.0,0.0,0.0,0.0,0.0,-0.038500092923641205,-0.04995039105415344,-0.0101781552657485,0.0,0.0,0.0,0.0,0.0,0.0,0.0,0.0,0.0,-0.6389743685722351,0.21358974277973175,10.20923137664795,0.0,0.0,0.0,0.0,0.0,0.0,0.0,0.0,0.0
1646350918.3903933,10563,1646350918,389986077,,0.0,0.0,0.0,0.0,0.0,0.0,0.0,0.0,0.0,0.0,0.0,0.0,0.0,-0.06832749396562576,-0.053146183490753174,0.03243241831660271,0.0,0.0,0.0,0.0,0.0,0.0,0.0,0.0,0.0,-0.5600000023841858,-0.10948718339204788,9.69410228729248,0.0,0.0,0.0,0.0,0.0,0.0,0.0,0.0,0.0
1646350918.3925097,10564,1646350918,392158123,,0.0,0.0,0.0,0.0,0.0,0.0,0.0,0.0,0.0,0.0,0.0,0.0,0.0,-0.039565350860357285,-0.04995039105415344,0.010061867535114288,0.0,0.0,0.0,0.0,0.0,0.0,0.0,0.0,0.0,-0.6210256814956665,0.4038461744785309,9.970513343811035,0.0,0.0,0.0,0.0,0.0,0.0,0.0,0.0,0.0
1646350918.3947113,10565,1646350918,394328183,,0.0,0.0,0.0,0.0,0.0,0.0,0.0,0.0,0.0,0.0,0.0,0.0,0.0,-0.02997797727584839,-0.08084305375814438,0.021779777482151985,0.0,0.0,0.0,0.0,0.0,0.0,0.0,0.0,0.0,-0.7376923561096191,0.21717949211597443,10.193077087402344,0.0,0.0,0.0,0.0,0.0,0.0,0.0,0.0,0.0
